Folder: nir_corr_po/Data/NIR (part 5)

File: H0007HDPE_5.csv
Wavenumber,Intensity
3999.706,1.801897
4026.705,1.76213
4053.704,1.760883
4080.703,1.75251
4107.702,1.732482
4134.701,1.74305
4161.7,1.741112
4188.699,1.751838
4215.698,1.782187
4242.697,1.792045
4269.696,1.819491
4296.694,1.853088
4323.693,1.76728
4350.692,1.834563
4377.691,1.903944
4404.69,2.041596
4431.689,2.257156
4458.688,2.516384
4485.688,2.801791
4512.687,3.118795
4539.686,3.42925
4566.685,3.786668
4593.683,4.004485
4620.682,4.116673
4647.681,4.180112
4674.68,4.062066
4701.679,4.278438
4728.678,4.12106
4755.677,3.990699
4782.676,3.742071
4809.675,3.611626
4836.674,3.39499
4863.673,3.150271
4890.672,3.202918
4917.671,3.246408
4944.67,3.21499
4971.669,2.992873
4998.668,3.213293
5025.667,3.328559
5052.666,3.345962
5079.665,3.288816
5106.664,3.254677
5133.663,3.317692
5160.662,3.222089
5187.661,3.207907
5214.66,3.226579
5241.659,3.274644
5268.658,3.315333
5295.657,3.287999
5322.656,3.374664
5349.655,3.207719
5376.654,2.999027
5403.652,2.845436
5430.651,2.630692
5457.65,2.581951
5484.649,2.473454
5511.648,2.494504
5538.647,2.492475
5565.646,2.512523
5592.646,2.675523
5619.645,2.494438
5646.644,2.262592
5673.643,2.088753
5700.642,2.340113
5727.641,2.228184
5754.639,2.032377
5781.638,1.953532
5808.637,2.046288
5835.636,2.231555
5862.635,2.989631
5889.634,4.417611
5916.633,5.289095
5943.632,6.145312
5970.631,7.121676
5997.63,8.130971
6024.629,8.915793
6051.628,9.475079
6078.627,9.841969
6105.626,10.05817
6132.625,10.27115
6159.624,10.44784
6186.623,10.62159
6213.622,10.73399
6240.621,10.81719
6267.62,10.84167
6294.619,10.86416
6321.618,10.86105
6348.617,10.72405
6375.616,10.43625
6402.615,10.27233
6429.614,9.946828
6456.613,9.473169
6483.612,8.158045
6510.61,8.808833
6537.609,9.123598
6564.608,9.305165
6591.607,9.462893
6618.606,9.461861
6645.605,9.359392
6672.604,9.176007
6699.604,8.914602
6726.603,8.5727
6753.602,8.269064
6780.601,7.878906
6807.6,7.225197
6834.599,6.564776
6861.598,6.27396
6888.597,5.9103
6915.596,5.591468
6942.594,5.030318
6969.593,4.911313
6996.592,4.807217
7023.591,4.539913
7050.59,4.504523
7077.589,4.709575
7104.588,5.276587
7131.587,5.741983
7158.586,4.710239
7185.585,4.394859
7212.584,6.085173
7239.583,7.450149
7266.582,8.706608
7293.581,9.843268
7320.58,10.81679
7347.579,11.4114
7374.578,11.76446
7401.577,11.94854
7428.576,12.04617
7455.575,12.12675
7482.574,12.16626
7509.573,12.13099
7536.572,12.07668
7563.571,11.97777
7590.57,11.87499
7617.569,11.73717
7644.568,11.54332
7671.566,11.39307
7698.565,11.28987
7725.564,11.17572
7752.563,11.07795
7779.563,10.93575
7806.562,10.83424
7833.561,10.68845
7860.56,10.50159
7887.559,10.24033
7914.558,9.937783
7941.557,9.576591
7968.556,9.146626
7995.555,8.661988
8022.554,8.116416
8049.553,7.478781
8076.552,6.762591
8103.551,6.011761
8130.55,5.151858
8157.548,4.283126
8184.547,3.486098
8211.546,3.086803
8238.545,3.095233
8265.544,3.243531
8292.543,3.673986
8319.542,4.242609
8346.541,4.897891
8373.54,5.697943
8400.539,6.246779
8427.538,6.206337
8454.537,6.950805
8481.536,7.656549
8508.535,8.205565
8535.534,8.424675
8562.533,7.676778
8589.532,8.645967
8616.531,10.04588
8643.53,10.96142
8670.529,11.51959
8697.528,12.02282
8724.527,12.56865
8751.525,13.07587
8778.524,13.4296
8805.523,13.64327
8832.522,13.76699
8859.521,13.81085
8886.521,13.84079
8913.52,13.79512
8940.519,13.76456
8967.518,13.77507
8994.517,13.78544
9021.516,13.8343
9048.515,13.87261
9075.514,13.88474
9102.513,13.91031
9129.512,13.89397
9156.511,13.83886
9183.51,13.789
9210.509,13.72983
9237.508,13.7023
9264.507,13.63432
9291.506,13.57434
9318.504,13.61085
9345.503,13.57926
9372.502,13.50431
9399.501,13.41787
9426.5,13.32213
9453.499,13.1699
9480.498,13.06109
9507.497,12.99072
9534.496,12.86327
9561.495,12.78477
9588.494,12.66247
9615.493,12.73733
9642.492,12.85854
9669.491,13.07606
9696.49,13.24786
9723.489,13.44897
9750.488,13.60142
9777.487,13.70653
9804.486,13.66919
9831.485,13.72171
9858.484,13.86921
9885.482,14.0576
9912.481,14.2394
9939.48,14.36689
9966.479,14.48577
9993.479,14.5547
10020.48,14.63914
10047.48,14.71806
10074.48,14.77702
10101.47,14.82469
10128.47,14.84023
10155.47,14.88001
10182.47,14.84733
10209.47,14.87826
10236.47,14.81863
10263.47,14.90562
10290.47,14.83191
10317.47,14.78349
10344.47,14.78007
10371.46,14.72503
10398.46,14.69931
10425.46,14.65835
10452.46,14.59436
10479.46,14.48633
10506.46,14.3117
10533.46,14.05361
10560.46,13.7806
10587.46,13.39985
10614.46,12.91495
10641.45,12.2826
10668.45,11.67355
10695.45,11.24709
10722.45,11.10713
10749.45,11.21555
10776.45,11.40815
10803.45,11.90171
10830.45,12.34845
10857.45,12.74643
10884.45,13.23026
10911.44,13.6146
10938.44,13.93943
10965.44,14.31442
10992.44,14.523
11019.44,14.64619
11046.44,14.81531
11073.44,14.92669
11100.44,14.96982
11127.44,14.94522
11154.43,15.1214
11181.43,15.13836
11208.43,15.33015
11235.43,15.49172
11262.43,15.69272
11289.43,15.63382
11316.43,15.72739
11343.43,15.83123
11370.43,15.76886
11397.43,15.85133
11424.42,15.95558
11451.42,15.97957
11478.42,16.01067
11505.42,15.97809
11532.42,16.18635
11559.42,16.16007
11586.42,16.18652
11613.42,16.1258
11640.42,16.28295
11667.42,16.26749
11694.41,16.202
11721.41,16.12234
11748.41,16.25242
11775.41,16.13838
11802.41,16.10864
11829.41,16.13126
11856.41,16.11771
11883.41,16.2206
11910.41,16.00913
11937.41,16.07923
11964.4,16.0996
11991.4,15.98484
11999.12,15.97038

File: H0007HDPE_6.csv
Wavenumber,Intensity
3999.706,1.670831
4026.705,1.627102
4053.704,1.631114
4080.703,1.617186
4107.702,1.596679
4134.701,1.607441
4161.7,1.603188
4188.699,1.614915
4215.698,1.64913
4242.697,1.65003
4269.696,1.688577
4296.694,1.722711
4323.693,1.627891
4350.692,1.70069
4377.691,1.776578
4404.69,1.908566
4431.689,2.102932
4458.688,2.339416
4485.688,2.614619
4512.687,2.940339
4539.686,3.272716
4566.685,3.656573
4593.683,3.891369
4620.682,4.010157
4647.681,4.081737
4674.68,3.950672
4701.679,4.1829
4728.678,4.004812
4755.677,3.858166
4782.676,3.585186
4809.675,3.446367
4836.674,3.21524
4863.673,2.957849
4890.672,3.009519
4917.671,3.056384
4944.67,3.020918
4971.669,2.793651
4998.668,3.018369
5025.667,3.136269
5052.666,3.151356
5079.665,3.09125
5106.664,3.05528
5133.663,3.121152
5160.662,3.022077
5187.661,3.006589
5214.66,3.025569
5241.659,3.078714
5268.658,3.110748
5295.657,3.082248
5322.656,3.172594
5349.655,2.999232
5376.654,2.782979
5403.652,2.642003
5430.651,2.421643
5457.65,2.385578
5484.649,2.291549
5511.648,2.307714
5538.647,2.305815
5565.646,2.325876
5592.646,2.474278
5619.645,2.306495
5646.644,2.103015
5673.643,1.958287
5700.642,2.171389
5727.641,2.080296
5754.639,1.904222
5781.638,1.823098
5808.637,1.916756
5835.636,2.084669
5862.635,2.767657
5889.634,4.242542
5916.633,5.186819
5943.632,6.125564
5970.631,7.195579
5997.63,8.304875
6024.629,9.162968
6051.628,9.769154
6078.627,10.16897
6105.626,10.4004
6132.625,10.63106
6159.624,10.81969
6186.623,11.00035
6213.622,11.11829
6240.621,11.20215
6267.62,11.22832
6294.619,11.24614
6321.618,11.23575
6348.617,11.08204
6375.616,10.77073
6402.615,10.58053
6429.614,10.22791
6456.613,9.707829
6483.612,8.269529
6510.61,8.972986
6537.609,9.314624
6564.608,9.511336
6591.607,9.671706
6618.606,9.666072
6645.605,9.551781
6672.604,9.351853
6699.604,9.064719
6726.603,8.682899
6753.602,8.359985
6780.601,7.92767
6807.6,7.21544
6834.599,6.496318
6861.598,6.187161
6888.597,5.788048
6915.596,5.44578
6942.594,4.841222
6969.593,4.722176
6996.592,4.617223
7023.591,4.326631
7050.59,4.281504
7077.589,4.510211
7104.588,5.098603
7131.587,5.592742
7158.586,4.518026
7185.585,4.166196
7212.584,5.952704
7239.583,7.427902
7266.582,8.764319
7293.581,9.971325
7320.58,11.02754
7347.579,11.65331
7374.578,12.03367
7401.577,12.22722
7428.576,12.32086
7455.575,12.40636
7482.574,12.44047
7509.573,12.40729
7536.572,12.33376
7563.571,12.23569
7590.57,12.12141
7617.569,11.96453
7644.568,11.76188
7671.566,11.59553
7698.565,11.47417
7725.564,11.35338
7752.563,11.24469
7779.563,11.08519
7806.562,10.98377
7833.561,10.82598
7860.56,10.6184
7887.559,10.32608
7914.558,10.00411
7941.557,9.622862
7968.556,9.164338
7995.555,8.644343
8022.554,8.051017
8049.553,7.371653
8076.552,6.607708
8103.551,5.80798
8130.55,4.909453
8157.548,4.025747
8184.547,3.227947
8211.546,2.847106
8238.545,2.856963
8265.544,2.997116
8292.543,3.410573
8319.542,3.979843
8346.541,4.633007
8373.54,5.482106
8400.539,6.037987
8427.538,5.9989
8454.537,6.782135
8481.536,7.519676
8508.535,8.114902
8535.534,8.319027
8562.533,7.554914
8589.532,8.572076
8616.531,10.04679
8643.53,11.01697
8670.529,11.60784
8697.528,12.12655
8724.527,12.71648
8751.525,13.24397
8778.524,13.617
8805.523,13.84196
8832.522,13.95548
8859.521,13.99881
8886.521,14.0226
8913.52,13.97994
8940.519,13.94596
8967.518,13.94865
8994.517,13.96841
9021.516,14.00667
9048.515,14.033
9075.514,14.06414
9102.513,14.06583
9129.512,14.05864
9156.511,14.00284
9183.51,13.94427
9210.509,13.88568
9237.508,13.83744
9264.507,13.77166
9291.506,13.70223
9318.504,13.73416
9345.503,13.70637
9372.502,13.63317
9399.501,13.51833
9426.5,13.41413
9453.499,13.27335
9480.498,13.1244
9507.497,13.06378
9534.496,12.95597
9561.495,12.86329
9588.494,12.75212
9615.493,12.79928
9642.492,12.92623
9669.491,13.1649
9696.49,13.34516
9723.489,13.53437
9750.488,13.70675
9777.487,13.76875
9804.486,13.74756
9831.485,13.76923
9858.484,13.95032
9885.482,14.15102
9912.481,14.31723
9939.48,14.46567
9966.479,14.608
9993.479,14.66287
10020.48,14.74148
10047.48,14.81304
10074.48,14.86737
10101.47,14.92618
10128.47,14.99052
10155.47,14.95554
10182.47,14.96455
10209.47,14.98893
10236.47,14.94095
10263.47,14.96405
10290.47,14.90985
10317.47,14.88265
10344.47,14.83722
10371.46,14.79933
10398.46,14.77577
10425.46,14.75583
10452.46,14.62707
10479.46,14.54009
10506.46,14.34123
10533.46,14.09959
10560.46,13.79355
10587.46,13.39794
10614.46,12.87178
10641.45,12.23322
10668.45,11.55346
10695.45,11.11639
10722.45,10.96633
10749.45,11.03766
10776.45,11.32367
10803.45,11.79855
10830.45,12.2149
10857.45,12.69966
10884.45,13.16736
10911.44,13.54457
10938.44,13.93941
10965.44,14.30441
10992.44,14.56739
11019.44,14.69853
11046.44,14.85361
11073.44,14.92292
11100.44,14.99375
11127.44,14.98714
11154.43,15.10964
11181.43,15.16665
11208.43,15.37083
11235.43,15.54709
11262.43,15.65038
11289.43,15.6363
11316.43,15.71072
11343.43,15.82619
11370.43,15.89192
11397.43,15.91727
11424.42,15.98004
11451.42,16.06585
11478.42,15.98338
11505.42,16.02329
11532.42,16.1941
11559.42,16.16165
11586.42,16.13228
11613.42,16.07129
11640.42,16.16973
11667.42,16.14275
11694.41,16.18617
11721.41,16.22956
11748.41,16.2392
11775.41,16.13333
11802.41,15.99793
11829.41,16.08398
11856.41,16.09197
11883.41,16.17653
11910.41,16.0522
11937.41,16.09123
11964.4,15.95042
11991.4,15.94493
11999.12,15.93723

File: H0008HDPE_1.csv
Wavenumber,Intensity
3999.706,2.864477
4026.705,2.853944
4053.704,2.863902
4080.703,2.859281
4107.702,2.856287
4134.701,2.860296
4161.7,2.871346
4188.699,2.887018
4215.698,2.929713
4242.697,2.945749
4269.696,2.974937
4296.694,2.998129
4323.693,2.939396
4350.692,2.98973
4377.691,3.041573
4404.69,3.18164
4431.689,3.392091
4458.688,3.614412
4485.688,3.831846
4512.687,4.12342
4539.686,4.399787
4566.685,4.72296
4593.683,4.906735
4620.682,5.018081
4647.681,5.080871
4674.68,4.995754
4701.679,5.169169
4728.678,5.039906
4755.677,4.975973
4782.676,4.778536
4809.675,4.681036
4836.674,4.50626
4863.673,4.299939
4890.672,4.358383
4917.671,4.40834
4944.67,4.382389
4971.669,4.200288
4998.668,4.398211
5025.667,4.513908
5052.666,4.533442
5079.665,4.491971
5106.664,4.471334
5133.663,4.538555
5160.662,4.459598
5187.661,4.455049
5214.66,4.474999
5241.659,4.535928
5268.658,4.563022
5295.657,4.547928
5322.656,4.634804
5349.655,4.484996
5376.654,4.292126
5403.652,4.170456
5430.651,3.945406
5457.65,3.92489
5484.649,3.81966
5511.648,3.84659
5538.647,3.847606
5565.646,3.871389
5592.646,4.050056
5619.645,3.862274
5646.644,3.609058
5673.643,3.389364
5700.642,3.712653
5727.641,3.577679
5754.639,3.310191
5781.638,3.189116
5808.637,3.336823
5835.636,3.599188
5862.635,4.472086
5889.634,5.853717
5916.633,6.623955
5943.632,7.257835
5970.631,8.137755
5997.63,9.071314
6024.629,9.794452
6051.628,10.31038
6078.627,10.62394
6105.626,10.50962
6132.625,10.93432
6159.624,11.22494
6186.623,11.42196
6213.622,11.54099
6240.621,11.64091
6267.62,11.67443
6294.619,11.71029
6321.618,11.7201
6348.617,11.60446
6375.616,11.36158
6402.615,11.21101
6429.614,10.92756
6456.613,10.50165
6483.612,9.27202
6510.61,9.917013
6537.609,10.22703
6564.608,10.41594
6591.607,10.58593
6618.606,10.60064
6645.605,10.5245
6672.604,10.37318
6699.604,10.14351
6726.603,9.821975
6753.602,9.560802
6780.601,9.199505
6807.6,8.591754
6834.599,7.95715
6861.598,7.704833
6888.597,7.37378
6915.596,7.086974
6942.594,6.547744
6969.593,6.455581
6996.592,6.35694
7023.591,6.084678
7050.59,6.071763
7077.589,6.282299
7104.588,6.836133
7131.587,7.298708
7158.586,6.335811
7185.585,5.996984
7212.584,7.699981
7239.583,9.083738
7266.582,10.31082
7293.581,11.41618
7320.58,12.39712
7347.579,12.9962
7374.578,13.30656
7401.577,13.45656
7428.576,13.56422
7455.575,13.65292
7482.574,13.70515
7509.573,13.67107
7536.572,13.652
7563.571,13.57937
7590.57,13.49105
7617.569,13.36327
7644.568,13.18993
7671.566,13.04728
7698.565,12.96675
7725.564,12.86358
7752.563,12.77726
7779.563,12.65409
7806.562,12.57466
7833.561,12.4486
7860.56,12.27221
7887.559,12.0113
7914.558,11.73445
7941.557,11.38495
7968.556,10.97222
7995.555,10.51197
8022.554,9.956125
8049.553,9.32576
8076.552,8.617108
8103.551,7.854544
8130.55,6.988262
8157.548,6.091908
8184.547,5.246936
8211.546,4.77232
8238.545,4.806763
8265.544,4.966096
8292.543,5.476947
8319.542,6.114232
8346.541,6.813428
8373.54,7.710036
8400.539,8.273098
8427.538,8.20499
8454.537,8.991971
8481.536,9.729522
8508.535,10.29292
8535.534,10.52258
8562.533,9.720505
8589.532,10.76575
8616.531,12.26276
8643.53,13.21995
8670.529,13.7966
8697.528,14.34655
8724.527,14.88881
8751.525,15.426
8778.524,15.81308
8805.523,16.04834
8832.522,16.17569
8859.521,16.24293
8886.521,16.25758
8913.52,16.25624
8940.519,16.20724
8967.518,16.23685
8994.517,16.26928
9021.516,16.34135
9048.515,16.40075
9075.514,16.42761
9102.513,16.46664
9129.512,16.45322
9156.511,16.44556
9183.51,16.39456
9210.509,16.33649
9237.508,16.30041
9264.507,16.28554
9291.506,16.24867
9318.504,16.27863
9345.503,16.26587
9372.502,16.18668
9399.501,16.08172
9426.5,15.99756
9453.499,15.8595
9480.498,15.74978
9507.497,15.66834
9534.496,15.59302
9561.495,15.47894
9588.494,15.41207
9615.493,15.46585
9642.492,15.63209
9669.491,15.86685
9696.49,16.08768
9723.489,16.30481
9750.488,16.5306
9777.487,16.58603
9804.486,16.62764
9831.485,16.65467
9858.484,16.85158
9885.482,17.08317
9912.481,17.25889
9939.48,17.46517
9966.479,17.60155
9993.479,17.71437
10020.48,17.78095
10047.48,17.87124
10074.48,17.99367
10101.47,18.07222
10128.47,18.11424
10155.47,18.10676
10182.47,18.14638
10209.47,18.12666
10236.47,18.13061
10263.47,18.15006
10290.47,18.1037
10317.47,18.08336
10344.47,18.07338
10371.46,18.08876
10398.46,17.99824
10425.46,18.00712
10452.46,17.92206
10479.46,17.80769
10506.46,17.65277
10533.46,17.42894
10560.46,17.06442
10587.46,16.65514
10614.46,16.0901
10641.45,15.50042
10668.45,14.78281
10695.45,14.31395
10722.45,14.11791
10749.45,14.22461
10776.45,14.56558
10803.45,15.07301
10830.45,15.58306
10857.45,16.09848
10884.45,16.61928
10911.44,17.07574
10938.44,17.44106
10965.44,17.84994
10992.44,18.13457
11019.44,18.31375
11046.44,18.40902
11073.44,18.5997
11100.44,18.62327
11127.44,18.69582
11154.43,18.75183
11181.43,18.85762
11208.43,19.12298
11235.43,19.26939
11262.43,19.40586
11289.43,19.46907
11316.43,19.5263
11343.43,19.66452
11370.43,19.63203
11397.43,19.76465
11424.42,19.82989
11451.42,19.98174
11478.42,20.07174
11505.42,20.03264
11532.42,20.05338
11559.42,20.25279
11586.42,20.24686
11613.42,20.27221
11640.42,20.38033
11667.42,20.08869
11694.41,20.33969
11721.41,20.36872
11748.41,20.33457
11775.41,20.27508
11802.41,20.35867
11829.41,20.28718
11856.41,20.4012
11883.41,20.53395
11910.41,20.6009
11937.41,20.64119
11964.4,20.62711
11991.4,20.64914
11999.12,20.78157

File: H0008HDPE_2.csv
Wavenumber,Intensity
3999.706,3.08597
4026.705,3.073017
4053.704,3.08328
4080.703,3.089162
4107.702,3.081595
4134.701,3.091544
4161.7,3.099672
4188.699,3.113017
4215.698,3.155753
4242.697,3.173267
4269.696,3.203755
4296.694,3.230104
4323.693,3.175193
4350.692,3.224631
4377.691,3.279914
4404.69,3.438375
4431.689,3.637556
4458.688,3.845047
4485.688,4.033776
4512.687,4.290947
4539.686,4.540596
4566.685,4.825676
4593.683,4.995562
4620.682,5.095456
4647.681,5.156865
4674.68,5.088419
4701.679,5.24405
4728.678,5.133324
4755.677,5.085949
4782.676,4.912699
4809.675,4.829362
4836.674,4.676936
4863.673,4.495556
4890.672,4.547362
4917.671,4.597656
4944.67,4.574355
4971.669,4.418389
4998.668,4.599135
5025.667,4.698475
5052.666,4.716205
5079.665,4.68214
5106.664,4.669905
5133.663,4.732479
5160.662,4.66048
5187.661,4.658546
5214.66,4.678688
5241.659,4.72536
5268.658,4.765831
5295.657,4.752076
5322.656,4.830629
5349.655,4.700258
5376.654,4.527951
5403.652,4.413921
5430.651,4.222064
5457.65,4.187753
5484.649,4.089318
5511.648,4.118953
5538.647,4.125092
5565.646,4.148444
5592.646,4.31071
5619.645,4.137319
5646.644,3.887863
5673.643,3.663852
5700.642,4.000086
5727.641,3.863157
5754.639,3.575038
5781.638,3.432726
5808.637,3.607456
5835.636,3.886355
5862.635,4.725437
5889.634,5.986423
5916.633,6.694029
5943.632,7.284176
5970.631,8.101478
5997.63,8.97499
6024.629,9.665627
6051.628,10.15892
6078.627,10.46134
6105.626,10.35402
6132.625,10.76476
6159.624,11.04554
6186.623,11.23974
6213.622,11.35442
6240.621,11.45023
6267.62,11.4898
6294.619,11.52544
6321.618,11.54055
6348.617,11.42541
6375.616,11.18868
6402.615,11.05115
6429.614,10.78017
6456.613,10.3724
6483.612,9.214535
6510.61,9.815497
6537.609,10.10917
6564.608,10.29332
6591.607,10.46017
6618.606,10.47096
6645.605,10.40595
6672.604,10.26212
6699.604,10.04306
6726.603,9.742671
6753.602,9.499906
6780.601,9.160511
6807.6,8.59786
6834.599,8.016599
6861.598,7.785655
6888.597,7.471417
6915.596,7.206205
6942.594,6.714234
6969.593,6.629298
6996.592,6.541696
7023.591,6.298556
7050.59,6.280343
7077.589,6.478445
7104.588,6.97894
7131.587,7.411067
7158.586,6.515058
7185.585,6.220503
7212.584,7.799301
7239.583,9.062758
7266.582,10.23804
7293.581,11.28747
7320.58,12.22354
7347.579,12.81142
7374.578,13.10423
7401.577,13.26301
7428.576,13.37391
7455.575,13.46
7482.574,13.50526
7509.573,13.48142
7536.572,13.45609
7563.571,13.39037
7590.57,13.30978
7617.569,13.18188
7644.568,13.01789
7671.566,12.87362
7698.565,12.80487
7725.564,12.7046
7752.563,12.61912
7779.563,12.49914
7806.562,12.43022
7833.561,12.30784
7860.56,12.14046
7887.559,11.90406
7914.558,11.62573
7941.557,11.3124
7968.556,10.92308
7995.555,10.48313
8022.554,9.959535
8049.553,9.381466
8076.552,8.722893
8103.551,8.022623
8130.55,7.219536
8157.548,6.379901
8184.547,5.577577
8211.546,5.139764
8238.545,5.153749
8265.544,5.330677
8292.543,5.811223
8319.542,6.409611
8346.541,7.076755
8373.54,7.906156
8400.539,8.438119
8427.538,8.380955
8454.537,9.105371
8481.536,9.789874
8508.535,10.32484
8535.534,10.52697
8562.533,9.80004
8589.532,10.7621
8616.531,12.16988
8643.53,13.05843
8670.529,13.64974
8697.528,14.16038
8724.527,14.68808
8751.525,15.21733
8778.524,15.60112
8805.523,15.83387
8832.522,15.96454
8859.521,16.02822
8886.521,16.04249
8913.52,16.02911
8940.519,15.99176
8967.518,16.01451
8994.517,16.05742
9021.516,16.12375
9048.515,16.1816
9075.514,16.20422
9102.513,16.25121
9129.512,16.22478
9156.511,16.22196
9183.51,16.16813
9210.509,16.13257
9237.508,16.09683
9264.507,16.06951
9291.506,16.054
9318.504,16.06129
9345.503,16.05137
9372.502,15.96759
9399.501,15.8998
9426.5,15.78801
9453.499,15.65845
9480.498,15.56056
9507.497,15.49246
9534.496,15.42245
9561.495,15.31224
9588.494,15.22412
9615.493,15.25987
9642.492,15.45482
9669.491,15.68442
9696.49,15.86903
9723.489,16.08524
9750.488,16.29414
9777.487,16.37973
9804.486,16.41903
9831.485,16.44762
9858.484,16.63442
9885.482,16.86369
9912.481,17.02258
9939.48,17.22353
9966.479,17.38975
9993.479,17.50288
10020.48,17.54871
10047.48,17.6758
10074.48,17.73394
10101.47,17.83512
10128.47,17.86507
10155.47,17.84512
10182.47,17.89773
10209.47,17.90073
10236.47,17.90549
10263.47,17.90797
10290.47,17.89716
10317.47,17.82674
10344.47,17.83107
10371.46,17.85386
10398.46,17.77089
10425.46,17.77067
10452.46,17.68991
10479.46,17.61283
10506.46,17.44454
10533.46,17.20874
10560.46,16.89322
10587.46,16.45251
10614.46,15.95664
10641.45,15.33832
10668.45,14.72081
10695.45,14.19811
10722.45,14.09335
10749.45,14.15937
10776.45,14.50279
10803.45,14.93307
10830.45,15.4267
10857.45,15.88483
10884.45,16.44331
10911.44,16.85116
10938.44,17.28851
10965.44,17.64291
10992.44,17.93913
11019.44,18.03011
11046.44,18.18399
11073.44,18.30278
11100.44,18.32789
11127.44,18.39765
11154.43,18.49313
11181.43,18.61685
11208.43,18.80956
11235.43,19.016
11262.43,19.05168
11289.43,19.26331
11316.43,19.2753
11343.43,19.34225
11370.43,19.3631
11397.43,19.53798
11424.42,19.52005
11451.42,19.68588
11478.42,19.74217
11505.42,19.70566
11532.42,19.76244
11559.42,19.85943
11586.42,20.06079
11613.42,20.02806
11640.42,19.94182
11667.42,19.95662
11694.41,20.04842
11721.41,20.01578
11748.41,20.01713
11775.41,20.10757
11802.41,20.05786
11829.41,20.15093
11856.41,20.14267
11883.41,20.06952
11910.41,20.28819
11937.41,20.32988
11964.4,20.43978
11991.4,20.51451
11999.12,20.60166