Folder: nir_corr_po/Data/NIR (part 14)

File: S0048HDPE_5.csv
Wavenumber,Intensity
3999.706,3.247462
4026.705,3.216611
4053.704,3.232531
4080.703,3.233577
4107.702,3.22134
4134.701,3.23105
4161.7,3.239306
4188.699,3.258697
4215.698,3.302998
4242.697,3.320685
4269.696,3.360312
4296.694,3.410556
4323.693,3.331057
4350.692,3.388361
4377.691,3.491365
4404.69,3.703377
4431.689,3.951229
4458.688,4.191875
4485.688,4.423443
4512.687,4.702964
4539.686,4.974984
4566.685,5.288629
4593.683,5.470173
4620.682,5.571465
4647.681,5.631184
4674.68,5.531291
4701.679,5.72397
4728.678,5.595341
4755.677,5.519288
4782.676,5.312964
4809.675,5.20249
4836.674,5.020297
4863.673,4.81224
4890.672,4.857232
4917.671,4.898182
4944.67,4.872098
4971.669,4.685172
4998.668,4.873016
5025.667,4.970957
5052.666,4.985281
5079.665,4.941886
5106.664,4.91467
5133.663,4.968645
5160.662,4.879968
5187.661,4.868093
5214.66,4.882462
5241.659,4.923767
5268.658,4.954147
5295.657,4.925995
5322.656,5.005465
5349.655,4.860305
5376.654,4.682827
5403.652,4.552804
5430.651,4.355932
5457.65,4.315424
5484.649,4.217418
5511.648,4.242134
5538.647,4.24138
5565.646,4.252892
5592.646,4.408388
5619.645,4.235875
5646.644,4.010122
5673.643,3.808286
5700.642,4.081258
5727.641,3.94918
5754.639,3.72723
5781.638,3.615832
5808.637,3.748973
5835.636,3.96835
5862.635,4.720813
5889.634,5.943505
5916.633,6.655055
5943.632,7.314898
5970.631,8.183186
5997.63,9.116971
6024.629,9.850563
6051.628,10.3692
6078.627,10.69597
6105.626,10.67426
6132.625,11.02166
6159.624,11.26956
6186.623,11.46012
6213.622,11.56698
6240.621,11.65344
6267.62,11.67667
6294.619,11.70689
6321.618,11.70001
6348.617,11.55588
6375.616,11.28057
6402.615,11.11899
6429.614,10.80562
6456.613,10.34014
6483.612,9.087833
6510.61,9.723966
6537.609,10.03631
6564.608,10.21839
6591.607,10.3734
6618.606,10.37343
6645.605,10.28411
6672.604,10.1079
6699.604,9.863661
6726.603,9.539113
6753.602,9.270139
6780.601,8.902505
6807.6,8.299351
6834.599,7.700051
6861.598,7.444655
6888.597,7.122807
6915.596,6.848989
6942.594,6.337012
6969.593,6.255725
6996.592,6.164376
7023.591,5.920899
7050.59,5.892487
7077.589,6.095497
7104.588,6.574364
7131.587,6.980675
7158.586,6.082089
7185.585,5.831806
7212.584,7.342248
7239.583,8.592816
7266.582,9.770303
7293.581,10.84315
7320.58,11.78543
7347.579,12.38024
7374.578,12.68105
7401.577,12.84584
7428.576,12.94207
7455.575,13.03208
7482.574,13.0621
7509.573,13.02792
7536.572,12.97825
7563.571,12.8832
7590.57,12.78754
7617.569,12.64256
7644.568,12.45061
7671.566,12.30526
7698.565,12.2074
7725.564,12.09752
7752.563,11.99254
7779.563,11.86353
7806.562,11.7662
7833.561,11.63513
7860.56,11.44874
7887.559,11.20093
7914.558,10.90816
7941.557,10.56667
7968.556,10.16742
7995.555,9.718086
8022.554,9.202465
8049.553,8.612635
8076.552,7.973374
8103.551,7.283577
8130.55,6.527688
8157.548,5.776496
8184.547,5.064153
8211.546,4.706074
8238.545,4.720981
8265.544,4.838758
8292.543,5.238331
8319.542,5.756165
8346.541,6.34597
8373.54,7.107311
8400.539,7.606241
8427.538,7.524768
8454.537,8.206141
8481.536,8.861539
8508.535,9.374329
8535.534,9.565399
8562.533,8.83285
8589.532,9.767506
8616.531,11.12085
8643.53,12.02661
8670.529,12.59698
8697.528,13.10122
8724.527,13.61608
8751.525,14.13992
8778.524,14.52891
8805.523,14.74391
8832.522,14.8673
8859.521,14.90661
8886.521,14.9354
8913.52,14.89882
8940.519,14.86635
8967.518,14.85604
8994.517,14.90134
9021.516,14.947
9048.515,15.00153
9075.514,15.01768
9102.513,15.04588
9129.512,15.03265
9156.511,14.98305
9183.51,14.95237
9210.509,14.89347
9237.508,14.83796
9264.507,14.7677
9291.506,14.72841
9318.504,14.75198
9345.503,14.73562
9372.502,14.65865
9399.501,14.56265
9426.5,14.47211
9453.499,14.30563
9480.498,14.19352
9507.497,14.12072
9534.496,14.03943
9561.495,13.92499
9588.494,13.82657
9615.493,13.88244
9642.492,14.03148
9669.491,14.26744
9696.49,14.45431
9723.489,14.63801
9750.488,14.81254
9777.487,14.90585
9804.486,14.8979
9831.485,14.92918
9858.484,15.11956
9885.482,15.29557
9912.481,15.46793
9939.48,15.63611
9966.479,15.76274
9993.479,15.84888
10020.48,15.93637
10047.48,16.02026
10074.48,16.08628
10101.47,16.14156
10128.47,16.18979
10155.47,16.19357
10182.47,16.22404
10209.47,16.24133
10236.47,16.21636
10263.47,16.22326
10290.47,16.18469
10317.47,16.117
10344.47,16.11137
10371.46,16.09216
10398.46,16.0326
10425.46,16.02169
10452.46,15.86721
10479.46,15.82597
10506.46,15.62994
10533.46,15.37924
10560.46,15.07589
10587.46,14.70351
10614.46,14.19553
10641.45,13.55346
10668.45,12.9606
10695.45,12.46282
10722.45,12.32934
10749.45,12.47089
10776.45,12.71881
10803.45,13.2064
10830.45,13.63366
10857.45,14.09761
10884.45,14.60281
10911.44,14.97156
10938.44,15.39549
10965.44,15.74493
10992.44,15.98376
11019.44,16.13168
11046.44,16.26207
11073.44,16.35701
11100.44,16.3951
11127.44,16.41045
11154.43,16.55941
11181.43,16.6016
11208.43,16.89231
11235.43,16.9564
11262.43,17.14227
11289.43,17.21678
11316.43,17.22092
11343.43,17.29226
11370.43,17.39791
11397.43,17.40482
11424.42,17.50212
11451.42,17.48545
11478.42,17.49331
11505.42,17.52629
11532.42,17.80019
11559.42,17.78206
11586.42,17.70018
11613.42,17.8842
11640.42,17.76019
11667.42,17.80967
11694.41,17.7593
11721.41,17.7043
11748.41,17.71537
11775.41,17.65144
11802.41,17.67758
11829.41,17.76427
11856.41,17.56395
11883.41,17.76082
11910.41,17.44663
11937.41,17.45407
11964.4,17.34355
11991.4,17.29316
11999.12,17.22899

File: S0048HDPE_6.csv
Wavenumber,Intensity
3999.706,3.260836
4026.705,3.23958
4053.704,3.253452
4080.703,3.254789
4107.702,3.255789
4134.701,3.264596
4161.7,3.264321
4188.699,3.292249
4215.698,3.330374
4242.697,3.345335
4269.696,3.383979
4296.694,3.423766
4323.693,3.366577
4350.692,3.409784
4377.691,3.504272
4404.69,3.796305
4431.689,4.187804
4458.688,4.545908
4485.688,4.866623
4512.687,5.228854
4539.686,5.555874
4566.685,5.909193
4593.683,6.112208
4620.682,6.22779
4647.681,6.292033
4674.68,6.189713
4701.679,6.401984
4728.678,6.27088
4755.677,6.194553
4782.676,5.971847
4809.675,5.852086
4836.674,5.635256
4863.673,5.377838
4890.672,5.438016
4917.671,5.492004
4944.67,5.459423
4971.669,5.234818
4998.668,5.461993
5025.667,5.583084
5052.666,5.594593
5079.665,5.544338
5106.664,5.51544
5133.663,5.574442
5160.662,5.467199
5187.661,5.455027
5214.66,5.466583
5241.659,5.511569
5268.658,5.543406
5295.657,5.507848
5322.656,5.594449
5349.655,5.435071
5376.654,5.218684
5403.652,5.050766
5430.651,4.783916
5457.65,4.734853
5484.649,4.596944
5511.648,4.627812
5538.647,4.623578
5565.646,4.641397
5592.646,4.850849
5619.645,4.618273
5646.644,4.285679
5673.643,3.954033
5700.642,4.379314
5727.641,4.187717
5754.639,3.821978
5781.638,3.653281
5808.637,3.852826
5835.636,4.203709
5862.635,5.194169
5889.634,6.503063
5916.633,7.201547
5943.632,7.82621
5970.631,8.644065
5997.63,9.513095
6024.629,10.195
6051.628,10.68438
6078.627,10.98591
6105.626,10.95955
6132.625,11.28692
6159.624,11.52559
6186.623,11.69621
6213.622,11.79524
6240.621,11.87524
6267.62,11.90226
6294.619,11.92153
6321.618,11.91489
6348.617,11.77761
6375.616,11.51097
6402.615,11.3556
6429.614,11.05639
6456.613,10.61489
6483.612,9.438369
6510.61,10.03197
6537.609,10.32325
6564.608,10.48841
6591.607,10.63916
6618.606,10.63805
6645.605,10.55209
6672.604,10.37901
6699.604,10.15136
6726.603,9.843716
6753.602,9.579911
6780.601,9.240013
6807.6,8.663069
6834.599,8.095245
6861.598,7.858206
6888.597,7.546879
6915.596,7.28133
6942.594,6.786235
6969.593,6.703796
6996.592,6.610514
7023.591,6.376139
7050.59,6.335331
7077.589,6.537302
7104.588,7.007732
7131.587,7.395985
7158.586,6.531928
7185.585,6.280879
7212.584,7.747258
7239.583,8.948842
7266.582,10.05964
7293.581,11.08454
7320.58,11.99323
7347.579,12.57344
7374.578,12.87869
7401.577,13.03355
7428.576,13.12668
7455.575,13.20967
7482.574,13.2439
7509.573,13.21142
7536.572,13.16656
7563.571,13.0724
7590.57,12.98257
7617.569,12.84076
7644.568,12.65624
7671.566,12.51234
7698.565,12.42076
7725.564,12.32131
7752.563,12.21922
7779.563,12.09676
7806.562,12.00272
7833.561,11.87284
7860.56,11.70258
7887.559,11.45432
7914.558,11.18528
7941.557,10.85176
7968.556,10.45502
7995.555,10.0318
8022.554,9.54462
8049.553,8.991469
8076.552,8.379529
8103.551,7.709584
8130.55,6.985233
8157.548,6.235485
8184.547,5.496453
8211.546,5.092227
8238.545,5.112947
8265.544,5.23664
8292.543,5.657832
8319.542,6.195103
8346.541,6.776967
8373.54,7.5252
8400.539,8.008946
8427.538,7.95114
8454.537,8.592131
8481.536,9.230192
8508.535,9.736972
8535.534,9.910316
8562.533,9.224966
8589.532,10.10993
8616.531,11.43194
8643.53,12.31442
8670.529,12.87452
8697.528,13.36701
8724.527,13.88765
8751.525,14.41004
8778.524,14.80054
8805.523,15.01043
8832.522,15.1451
8859.521,15.18495
8886.521,15.21084
8913.52,15.17837
8940.519,15.1359
8967.518,15.14845
8994.517,15.19349
9021.516,15.22682
9048.515,15.28245
9075.514,15.31089
9102.513,15.32889
9129.512,15.31294
9156.511,15.26454
9183.51,15.23035
9210.509,15.17676
9237.508,15.1399
9264.507,15.06819
9291.506,15.00552
9318.504,15.0628
9345.503,15.03402
9372.502,14.96742
9399.501,14.86758
9426.5,14.78185
9453.499,14.60287
9480.498,14.50886
9507.497,14.44627
9534.496,14.32993
9561.495,14.24372
9588.494,14.15225
9615.493,14.18543
9642.492,14.36181
9669.491,14.59506
9696.49,14.78759
9723.489,14.98608
9750.488,15.15359
9777.487,15.26498
9804.486,15.23309
9831.485,15.29226
9858.484,15.4507
9885.482,15.6604
9912.481,15.84301
9939.48,16.00914
9966.479,16.12823
9993.479,16.2243
10020.48,16.27847
10047.48,16.38884
10074.48,16.45966
10101.47,16.56884
10128.47,16.58783
10155.47,16.57335
10182.47,16.5951
10209.47,16.61711
10236.47,16.57323
10263.47,16.63059
10290.47,16.55356
10317.47,16.53495
10344.47,16.51792
10371.46,16.48879
10398.46,16.45569
10425.46,16.41229
10452.46,16.2961
10479.46,16.25193
10506.46,16.05067
10533.46,15.76846
10560.46,15.51681
10587.46,15.11783
10614.46,14.57859
10641.45,13.94308
10668.45,13.37651
10695.45,12.93343
10722.45,12.75241
10749.45,12.89575
10776.45,13.11364
10803.45,13.58328
10830.45,14.0665
10857.45,14.52385
10884.45,14.98092
10911.44,15.41742
10938.44,15.84546
10965.44,16.19945
10992.44,16.44269
11019.44,16.59533
11046.44,16.78922
11073.44,16.86036
11100.44,16.97792
11127.44,16.92881
11154.43,17.07568
11181.43,17.1378
11208.43,17.42489
11235.43,17.54245
11262.43,17.66748
11289.43,17.63234
11316.43,17.81277
11343.43,17.87712
11370.43,17.90505
11397.43,17.96853
11424.42,18.13552
11451.42,18.17696
11478.42,18.12376
11505.42,18.07227
11532.42,18.45636
11559.42,18.41429
11586.42,18.27862
11613.42,18.31074
11640.42,18.46928
11667.42,18.43931
11694.41,18.38666
11721.41,18.28476
11748.41,18.34148
11775.41,18.12671
11802.41,18.24083
11829.41,18.15408
11856.41,18.18268
11883.41,18.25627
11910.41,18.09457
11937.41,18.01191
11964.4,18.10715
11991.4,17.93858
11999.12,17.75727

File: S0081LDPE_1.csv
Wavenumber,Intensity
3999.706,2.956352
4026.705,2.97074
4053.704,2.978711
4080.703,2.990369
4107.702,2.997099
4134.701,3.006839
4161.7,3.0143
4188.699,3.030593
4215.698,3.070757
4242.697,3.093412
4269.696,3.109869
4296.694,3.125574
4323.693,3.10498
4350.692,3.131273
4377.691,3.143936
4404.69,3.185086
4431.689,3.29424
4458.688,3.476194
4485.688,3.661858
4512.687,3.874544
4539.686,4.103173
4566.685,4.366563
4593.683,4.540133
4620.682,4.651959
4647.681,4.7109
4674.68,4.677819
4701.679,4.801956
4728.678,4.72728
4755.677,4.656067
4782.676,4.530457
4809.675,4.452395
4836.674,4.305547
4863.673,4.137481
4890.672,4.168474
4917.671,4.200131
4944.67,4.173607
4971.669,4.019657
4998.668,4.152881
5025.667,4.23739
5052.666,4.251279
5079.665,4.225564
5106.664,4.213144
5133.663,4.257543
5160.662,4.211238
5187.661,4.204486
5214.66,4.211563
5241.659,4.238759
5268.658,4.255801
5295.657,4.249074
5322.656,4.286248
5349.655,4.202154
5376.654,4.062897
5403.652,3.941466
5430.651,3.801329
5457.65,3.757599
5484.649,3.691618
5511.648,3.697543
5538.647,3.700468
5565.646,3.711645
5592.646,3.795872
5619.645,3.689268
5646.644,3.546028
5673.643,3.45742
5700.642,3.586259
5727.641,3.575544
5754.639,3.432803
5781.638,3.382497
5808.637,3.437533
5835.636,3.54136
5862.635,3.865507
5889.634,4.710654
5916.633,5.414215
5943.632,6.573045
5970.631,7.492399
5997.63,8.273004
6024.629,8.881307
6051.628,9.319316
6078.627,9.618654
6105.626,9.790436
6132.625,10.00805
6159.624,10.25986
6186.623,10.47692
6213.622,10.6207
6240.621,10.71599
6267.62,10.76427
6294.619,10.80033
6321.618,10.81085
6348.617,10.73645
6375.616,10.55178
6402.615,10.43115
6429.614,10.19812
6456.613,9.852782
6483.612,8.897898
6510.61,9.265268
6537.609,9.458749
6564.608,9.571935
6591.607,9.67609
6618.606,9.670268
6645.605,9.583373
6672.604,9.435138
6699.604,9.217503
6726.603,8.94374
6753.602,8.682658
6780.601,8.361368
6807.6,7.879179
6834.599,7.376916
6861.598,7.1235
6888.597,6.795103
6915.596,6.500197
6942.594,6.065598
6969.593,5.941656
6996.592,5.860414
7023.591,5.659416
7050.59,5.571898
7077.589,5.652107
7104.588,6.134554
7131.587,6.511272
7158.586,5.764717
7185.585,5.429774
7212.584,6.672855
7239.583,7.776062
7266.582,8.774353
7293.581,9.752906
7320.58,10.61176
7347.579,11.11665
7374.578,11.58884
7401.577,11.9116
7428.576,12.06639
7455.575,12.15793
7482.574,12.19434
7509.573,12.17911
7536.572,12.15177
7563.571,12.10118
7590.57,12.02739
7617.569,11.91152
7644.568,11.76576
7671.566,11.64651
7698.565,11.56607
7725.564,11.46391
7752.563,11.37168
7779.563,11.25687
7806.562,11.15734
7833.561,11.03427
7860.56,10.86693
7887.559,10.65559
7914.558,10.39647
7941.557,10.0816
7968.556,9.713293
7995.555,9.301806
8022.554,8.806941
8049.553,8.269788
8076.552,7.669229
8103.551,7.011363
8130.55,6.278369
8157.548,5.540441
8184.547,4.884109
8211.546,4.54594
8238.545,4.514791
8265.544,4.623484
8292.543,4.947475
8319.542,5.383523
8346.541,5.877524
8373.54,6.429852
8400.539,6.812621
8427.538,6.977982
8454.537,7.627524
8481.536,8.2352
8508.535,8.703584
8535.534,8.927967
8562.533,8.555159
8589.532,9.250928
8616.531,10.28091
8643.53,11.05346
8670.529,11.53748
8697.528,11.99022
8724.527,12.52241
8751.525,13.02312
8778.524,13.37509
8805.523,13.62244
8832.522,13.76058
8859.521,13.8325
8886.521,13.86792
8913.52,13.86357
8940.519,13.86441
8967.518,13.87735
8994.517,13.88864
9021.516,13.9448
9048.515,13.98611
9075.514,13.98357
9102.513,14.02096
9129.512,13.98432
9156.511,13.98532
9183.51,13.92664
9210.509,13.89019
9237.508,13.85922
9264.507,13.83316
9291.506,13.80432
9318.504,13.7908
9345.503,13.77111
9372.502,13.71633
9399.501,13.63071
9426.5,13.55507
9453.499,13.47692
9480.498,13.3975
9507.497,13.31253
9534.496,13.26575
9561.495,13.15693
9588.494,13.09451
9615.493,13.12927
9642.492,13.24139
9669.491,13.42413
9696.49,13.57107
9723.489,13.69815
9750.488,13.84694
9777.487,13.91197
9804.486,13.96351
9831.485,13.95564
9858.484,14.07228
9885.482,14.28175
9912.481,14.40136
9939.48,14.53274
9966.479,14.66198
9993.479,14.71692
10020.48,14.77851
10047.48,14.88753
10074.48,14.97348
10101.47,15.00184
10128.47,15.04628
10155.47,15.04724
10182.47,15.06981
10209.47,15.08104
10236.47,15.07079
10263.47,15.06973
10290.47,15.06479
10317.47,15.01108
10344.47,15.00081
10371.46,15.00677
10398.46,14.93896
10425.46,14.94934
10452.46,14.86635
10479.46,14.72087
10506.46,14.62566
10533.46,14.46302
10560.46,14.21728
10587.46,13.90024
10614.46,13.43578
10641.45,12.93693
10668.45,12.42665
10695.45,12.08343
10722.45,11.94314
10749.45,11.98088
10776.45,12.22696
10803.45,12.54052
10830.45,12.85768
10857.45,13.23019
10884.45,13.63289
10911.44,13.94006
10938.44,14.20865
10965.44,14.54922
10992.44,14.74674
11019.44,14.89595
11046.44,15.03416
11073.44,15.19742
11100.44,15.23421
11127.44,15.2268
11154.43,15.37466
11181.43,15.44072
11208.43,15.61374
11235.43,15.74694
11262.43,15.81981
11289.43,15.8923
11316.43,15.91188
11343.43,16.02398
11370.43,16.03181
11397.43,16.17193
11424.42,16.16676
11451.42,16.32641
11478.42,16.37822
11505.42,16.29638
11532.42,16.30102
11559.42,16.55136
11586.42,16.50064
11613.42,16.49132
11640.42,16.55119
11667.42,16.45747
11694.41,16.6085
11721.41,16.5205
11748.41,16.648
11775.41,16.66725
11802.41,16.55537
11829.41,16.64847
11856.41,16.58747
11883.41,16.72176
11910.41,16.96524
11937.41,16.93887
11964.4,17.0687
11991.4,16.87899
11999.12,17.06693

File: S0081LDPE_2.csv
Wavenumber,Intensity
3999.706,3.105731
4026.705,3.11976
4053.704,3.132078
4080.703,3.138485
4107.702,3.14552
4134.701,3.15047
4161.7,3.159536
4188.699,3.176735
4215.698,3.212567
4242.697,3.235996
4269.696,3.255036
4296.694,3.268801
4323.693,3.243482
4350.692,3.272945
4377.691,3.290604
4404.69,3.321956
4431.689,3.411045
4458.688,3.567275
4485.688,3.724967
4512.687,3.913177
4539.686,4.119118
4566.685,4.348433
4593.683,4.504085
4620.682,4.601562
4647.681,4.656027
4674.68,4.625512
4701.679,4.737779
4728.678,4.671742
4755.677,4.609899
4782.676,4.499639
4809.675,4.429577
4836.674,4.303044
4863.673,4.154259
4890.672,4.17916
4917.671,4.204699
4944.67,4.183417
4971.669,4.047064
4998.668,4.167463
5025.667,4.23559
5052.666,4.249921
5079.665,4.227981
5106.664,4.214952
5133.663,4.252675
5160.662,4.216381
5187.661,4.205
5214.66,4.214051
5241.659,4.236849
5268.658,4.253019
5295.657,4.24307
5322.656,4.275879
5349.655,4.203405
5376.654,4.076921
5403.652,3.976086
5430.651,3.851218
5457.65,3.816478
5484.649,3.755634
5511.648,3.760098
5538.647,3.760627
5565.646,3.771388
5592.646,3.838619
5619.645,3.743205
5646.644,3.627858
5673.643,3.551529
5700.642,3.662308
5727.641,3.654228
5754.639,3.538688
5781.638,3.498329
5808.637,3.535765
5835.636,3.621914
5862.635,3.891746
5889.634,4.628715
5916.633,5.244154
5943.632,6.251926
5970.631,7.057358
5997.63,7.738163
6024.629,8.26362
6051.628,8.644186
6078.627,8.904655
6105.626,9.04866
6132.625,9.233977
6159.624,9.454022
6186.623,9.636903
6213.622,9.75771
6240.621,9.83562
6267.62,9.876228
6294.619,9.903902
6321.618,9.911696
6348.617,9.842949
6375.616,9.687224
6402.615,9.583031
6429.614,9.374976
6456.613,9.070509
6483.612,8.238985
6510.61,8.553149
6537.609,8.715811
6564.608,8.811649
6591.607,8.896812
6618.606,8.891216
6645.605,8.809622
6672.604,8.683226
6699.604,8.496037
6726.603,8.258934
6753.602,8.026352
6780.601,7.74612
6807.6,7.329061
6834.599,6.893898
6861.598,6.669803
6888.597,6.386101
6915.596,6.124884
6942.594,5.749801
6969.593,5.640769
6996.592,5.567815
7023.591,5.399696
7050.59,5.318948
7077.589,5.393088
7104.588,5.800939
7131.587,6.122776
7158.586,5.478364
7185.585,5.186457
7212.584,6.2548
7239.583,7.202292
7266.582,8.059946
7293.581,8.888549
7320.58,9.62748
7347.579,10.04295
7374.578,10.44198
7401.577,10.71756
7428.576,10.8474
7455.575,10.91375
7482.574,10.9433
7509.573,10.93481
7536.572,10.90435
7563.571,10.85262
7590.57,10.78644
7617.569,10.69302
7644.568,10.56141
7671.566,10.45574
7698.565,10.39283
7725.564,10.30285
7752.563,10.21689
7779.563,10.11485
7806.562,10.03165
7833.561,9.921447
7860.56,9.768757
7887.559,9.586091
7914.558,9.364795
7941.557,9.098527
7968.556,8.787051
7995.555,8.431493
8022.554,8.01193
8049.553,7.54094
8076.552,7.038204
8103.551,6.480389
8130.55,5.853616
8157.548,5.223911
8184.547,4.686265
8211.546,4.390055
8238.545,4.369466
8265.544,4.461852
8292.543,4.732099
8319.542,5.085663
8346.541,5.511172
8373.54,5.965891
8400.539,6.299634
8427.538,6.430439
8454.537,6.974088
8481.536,7.475709
8508.535,7.878891
8535.534,8.088924
8562.533,7.755435
8589.532,8.333041
8616.531,9.184851
8643.53,9.84193
8670.529,10.25452
8697.528,10.61103
8724.527,11.05799
8751.525,11.46209
8778.524,11.74247
8805.523,11.9499
8832.522,12.05842
8859.521,12.1085
8886.521,12.14206
8913.52,12.15109
8940.519,12.12736
8967.518,12.13628
8994.517,12.14164
9021.516,12.17201
9048.515,12.22347
9075.514,12.21148
9102.513,12.23462
9129.512,12.20197
9156.511,12.18629
9183.51,12.14564
9210.509,12.11825
9237.508,12.07444
9264.507,12.05269
9291.506,12.02695
9318.504,12.02263
9345.503,12.00139
9372.502,11.94441
9399.501,11.89198
9426.5,11.79753
9453.499,11.72218
9480.498,11.66098
9507.497,11.59343
9534.496,11.54751
9561.495,11.48207
9588.494,11.40598
9615.493,11.44107
9642.492,11.54062
9669.491,11.63972
9696.49,11.78458
9723.489,11.89324
9750.488,12.00842
9777.487,12.06026
9804.486,12.0726
9831.485,12.09746
9858.484,12.19205
9885.482,12.34147
9912.481,12.42968
9939.48,12.55668
9966.479,12.66177
9993.479,12.73138
10020.48,12.73696
10047.48,12.80333
10074.48,12.87112
10101.47,12.93284
10128.47,12.94638
10155.47,12.91015
10182.47,12.94738
10209.47,12.97609
10236.47,12.96256
10263.47,12.96172
10290.47,12.93311
10317.47,12.90733
10344.47,12.90371
10371.46,12.86457
10398.46,12.84952
10425.46,12.84327
10452.46,12.73301
10479.46,12.69258
10506.46,12.6309
10533.46,12.41267
10560.46,12.22266
10587.46,11.94926
10614.46,11.58092
10641.45,11.21266
10668.45,10.7561
10695.45,10.50986
10722.45,10.33354
10749.45,10.39117
10776.45,10.60675
10803.45,10.81348
10830.45,11.10582
10857.45,11.41504
10884.45,11.72741
10911.44,11.96212
10938.44,12.21255
10965.44,12.46358
10992.44,12.62768
11019.44,12.76824
11046.44,12.86919
11073.44,12.95638
11100.44,12.99419
11127.44,12.98742
11154.43,13.09017
11181.43,13.16156
11208.43,13.27287
11235.43,13.39174
11262.43,13.54898
11289.43,13.49721
11316.43,13.50777
11343.43,13.63111
11370.43,13.60145
11397.43,13.67335
11424.42,13.75074
11451.42,13.80042
11478.42,13.84983
11505.42,13.75984
11532.42,13.81632
11559.42,13.98119
11586.42,13.91461
11613.42,13.91588
11640.42,13.93812
11667.42,13.82844
11694.41,13.94149
11721.41,13.89761
11748.41,13.90174
11775.41,13.9252
11802.41,13.86162
11829.41,13.97334
11856.41,13.82607
11883.41,13.82411
11910.41,13.87764
11937.41,13.76402
11964.4,13.75501
11991.4,13.69413
11999.12,13.91124