Folder: nir_corr_po/Data/NIR (part 3)

File: H0003LDPE_3.csv
Wavenumber,Intensity
3999.706,2.623198
4026.705,2.638616
4053.704,2.651299
4080.703,2.655449
4107.702,2.663662
4134.701,2.665529
4161.7,2.676715
4188.699,2.689744
4215.698,2.722069
4242.697,2.742927
4269.696,2.760913
4296.694,2.77246
4323.693,2.754126
4350.692,2.778446
4377.691,2.785353
4404.69,2.799791
4431.689,2.870692
4458.688,3.037838
4485.688,3.225486
4512.687,3.443962
4539.686,3.675128
4566.685,3.932334
4593.683,4.107636
4620.682,4.21855
4647.681,4.278311
4674.68,4.249518
4701.679,4.359733
4728.678,4.286637
4755.677,4.214314
4782.676,4.087127
4809.675,4.004244
4836.674,3.853629
4863.673,3.680188
4890.672,3.70575
4917.671,3.731537
4944.67,3.70032
4971.669,3.540611
4998.668,3.675684
5025.667,3.748614
5052.666,3.762118
5079.665,3.736265
5106.664,3.718148
5133.663,3.755419
5160.662,3.711163
5187.661,3.69926
5214.66,3.705196
5241.659,3.730289
5268.658,3.74111
5295.657,3.728272
5322.656,3.761524
5349.655,3.675801
5376.654,3.536608
5403.652,3.413592
5430.651,3.269863
5457.65,3.231586
5484.649,3.170837
5511.648,3.172362
5538.647,3.166325
5565.646,3.179381
5592.646,3.247518
5619.645,3.150465
5646.644,3.037354
5673.643,2.983981
5700.642,3.068147
5727.641,3.061137
5754.639,2.978464
5781.638,2.967439
5808.637,2.980064
5835.636,3.031654
5862.635,3.267378
5889.634,4.026493
5916.633,4.703305
5943.632,5.890967
5970.631,6.760067
5997.63,7.460837
6024.629,7.996182
6051.628,8.3725
6078.627,8.630994
6105.626,8.782458
6132.625,8.960799
6159.624,9.179479
6186.623,9.377087
6213.622,9.499811
6240.621,9.576937
6267.62,9.617373
6294.619,9.643035
6321.618,9.648488
6348.617,9.586401
6375.616,9.43375
6402.615,9.322179
6429.614,9.126198
6456.613,8.828549
6483.612,8.006926
6510.61,8.301952
6537.609,8.452676
6564.608,8.54193
6591.607,8.619933
6618.606,8.604078
6645.605,8.523232
6672.604,8.395186
6699.604,8.195602
6726.603,7.960285
6753.602,7.724167
6780.601,7.431532
6807.6,7.001796
6834.599,6.55477
6861.598,6.317326
6888.597,6.008319
6915.596,5.73419
6942.594,5.324504
6969.593,5.190524
6996.592,5.115272
7023.591,4.936009
7050.59,4.837533
7077.589,4.896174
7104.588,5.345699
7131.587,5.683253
7158.586,5.006076
7185.585,4.666399
7212.584,5.794475
7239.583,6.795751
7266.582,7.642569
7293.581,8.48116
7320.58,9.209214
7347.579,9.608757
7374.578,10.02942
7401.577,10.31223
7428.576,10.43831
7455.575,10.50464
7482.574,10.53112
7509.573,10.5158
7536.572,10.49387
7563.571,10.44952
7590.57,10.38109
7617.569,10.2871
7644.568,10.16482
7671.566,10.0542
7698.565,9.991159
7725.564,9.899928
7752.563,9.808614
7779.563,9.706464
7806.562,9.62356
7833.561,9.509549
7860.56,9.367232
7887.559,9.190404
7914.558,8.961491
7941.557,8.699857
7968.556,8.390644
7995.555,8.030535
8022.554,7.602587
8049.553,7.133565
8076.552,6.603803
8103.551,6.010667
8130.55,5.349729
8157.548,4.660985
8184.547,4.052835
8211.546,3.732687
8238.545,3.697438
8265.544,3.78723
8292.543,4.071439
8319.542,4.462162
8346.541,4.890869
8373.54,5.368315
8400.539,5.705911
8427.538,5.878468
8454.537,6.454671
8481.536,6.971683
8508.535,7.370451
8535.534,7.58142
8562.533,7.287438
8589.532,7.852676
8616.531,8.67387
8643.53,9.29351
8670.529,9.671538
8697.528,10.01575
8724.527,10.44365
8751.525,10.84931
8778.524,11.1265
8805.523,11.31085
8832.522,11.41627
8859.521,11.46242
8886.521,11.49303
8913.52,11.50016
8940.519,11.46973
8967.518,11.46798
8994.517,11.48182
9021.516,11.50751
9048.515,11.52717
9075.514,11.50926
9102.513,11.54533
9129.512,11.50486
9156.511,11.50362
9183.51,11.4559
9210.509,11.40693
9237.508,11.37354
9264.507,11.35126
9291.506,11.30894
9318.504,11.30865
9345.503,11.28252
9372.502,11.23826
9399.501,11.16745
9426.5,11.09938
9453.499,11.02882
9480.498,10.94577
9507.497,10.89582
9534.496,10.84837
9561.495,10.76074
9588.494,10.71447
9615.493,10.72427
9642.492,10.81679
9669.491,10.92815
9696.49,11.00396
9723.489,11.13797
9750.488,11.25173
9777.487,11.28214
9804.486,11.30179
9831.485,11.29755
9858.484,11.40104
9885.482,11.51095
9912.481,11.58625
9939.48,11.71671
9966.479,11.79798
9993.479,11.87362
10020.48,11.86694
10047.48,11.9198
10074.48,12.00842
10101.47,12.05546
10128.47,12.04858
10155.47,12.04922
10182.47,12.04383
10209.47,12.04718
10236.47,12.05058
10263.47,12.04196
10290.47,12.00229
10317.47,11.97619
10344.47,11.94494
10371.46,11.95472
10398.46,11.91417
10425.46,11.9209
10452.46,11.82068
10479.46,11.75766
10506.46,11.66337
10533.46,11.52338
10560.46,11.32544
10587.46,11.08697
10614.46,10.75707
10641.45,10.37192
10668.45,9.976587
10695.45,9.714095
10722.45,9.572556
10749.45,9.657645
10776.45,9.79166
10803.45,10.02213
10830.45,10.24395
10857.45,10.52653
10884.45,10.83855
10911.44,10.97105
10938.44,11.25828
10965.44,11.45859
10992.44,11.59429
11019.44,11.73464
11046.44,11.80535
11073.44,11.92877
11100.44,11.90904
11127.44,11.96643
11154.43,12.00165
11181.43,12.08586
11208.43,12.20548
11235.43,12.31051
11262.43,12.33504
11289.43,12.36883
11316.43,12.32285
11343.43,12.42384
11370.43,12.44924
11397.43,12.50816
11424.42,12.56782
11451.42,12.62901
11478.42,12.71461
11505.42,12.66504
11532.42,12.68618
11559.42,12.69308
11586.42,12.79447
11613.42,12.70871
11640.42,12.79415
11667.42,12.61477
11694.41,12.79537
11721.41,12.68348
11748.41,12.69352
11775.41,12.73233
11802.41,12.67476
11829.41,12.61365
11856.41,12.71804
11883.41,12.77316
11910.41,12.60205
11937.41,12.73854
11964.4,12.8077
11991.4,12.72342
11999.12,12.77386

File: H0003LDPE_4.csv
Wavenumber,Intensity
3999.706,2.814378
4026.705,2.827139
4053.704,2.841438
4080.703,2.854473
4107.702,2.856515
4134.701,2.869436
4161.7,2.871262
4188.699,2.889925
4215.698,2.922421
4242.697,2.940193
4269.696,2.955519
4296.694,2.968251
4323.693,2.958743
4350.692,2.974599
4377.691,2.980395
4404.69,2.98839
4431.689,3.040283
4458.688,3.160951
4485.688,3.30124
4512.687,3.470354
4539.686,3.659127
4566.685,3.86524
4593.683,4.013263
4620.682,4.105685
4647.681,4.159548
4674.68,4.131804
4701.679,4.232742
4728.678,4.170094
4755.677,4.115829
4782.676,4.004979
4809.675,3.939525
4836.674,3.817919
4863.673,3.683716
4890.672,3.694668
4917.671,3.7219
4944.67,3.702988
4971.669,3.572053
4998.668,3.683009
5025.667,3.736556
5052.666,3.754923
5079.665,3.729176
5106.664,3.718323
5133.663,3.7495
5160.662,3.711477
5187.661,3.700238
5214.66,3.7054
5241.659,3.722753
5268.658,3.736092
5295.657,3.726871
5322.656,3.757497
5349.655,3.690798
5376.654,3.586334
5403.652,3.486829
5430.651,3.384138
5457.65,3.350091
5484.649,3.304111
5511.648,3.300306
5538.647,3.297757
5565.646,3.310236
5592.646,3.361242
5619.645,3.292305
5646.644,3.211757
5673.643,3.172543
5700.642,3.230292
5727.641,3.228753
5754.639,3.167906
5781.638,3.161212
5808.637,3.170697
5835.636,3.206822
5862.635,3.386815
5889.634,3.97625
5916.633,4.528859
5943.632,5.564424
5970.631,6.346908
5997.63,6.995
6024.629,7.488634
6051.628,7.847901
6078.627,8.09028
6105.626,8.239429
6132.625,8.404593
6159.624,8.616398
6186.623,8.804874
6213.622,8.916438
6240.621,8.992599
6267.62,9.034595
6294.619,9.060305
6321.618,9.064754
6348.617,8.998924
6375.616,8.8456
6402.615,8.752846
6429.614,8.551336
6456.613,8.268769
6483.612,7.493679
6510.61,7.767858
6537.609,7.917706
6564.608,7.999522
6591.607,8.0723
6618.606,8.065989
6645.605,7.985464
6672.604,7.852879
6699.604,7.671481
6726.603,7.447288
6753.602,7.227568
6780.601,6.956761
6807.6,6.556781
6834.599,6.160982
6861.598,5.938659
6888.597,5.65944
6915.596,5.408562
6942.594,5.059916
6969.593,4.947044
6996.592,4.878613
7023.591,4.73093
7050.59,4.64604
7077.589,4.702939
7104.588,5.073064
7131.587,5.372763
7158.586,4.767135
7185.585,4.516228
7212.584,5.473701
7239.583,6.343775
7266.582,7.15623
7293.581,7.939747
7320.58,8.617664
7347.579,9.014516
7374.578,9.403652
7401.577,9.686347
7428.576,9.800211
7455.575,9.863817
7482.574,9.887789
7509.573,9.882794
7536.572,9.85578
7563.571,9.801512
7590.57,9.733883
7617.569,9.654647
7644.568,9.534869
7671.566,9.432807
7698.565,9.35899
7725.564,9.279806
7752.563,9.193937
7779.563,9.100671
7806.562,9.019911
7833.561,8.915115
7860.56,8.779262
7887.559,8.60318
7914.558,8.392532
7941.557,8.143342
7968.556,7.851157
7995.555,7.501651
8022.554,7.128121
8049.553,6.689759
8076.552,6.218203
8103.551,5.677079
8130.55,5.091028
8157.548,4.521306
8184.547,4.009407
8211.546,3.779899
8238.545,3.759302
8265.544,3.829707
8292.543,4.059766
8319.542,4.363368
8346.541,4.729324
8373.54,5.139008
8400.539,5.444499
8427.538,5.577984
8454.537,6.079438
8481.536,6.552002
8508.535,6.931063
8535.534,7.114159
8562.533,6.830438
8589.532,7.346055
8616.531,8.114569
8643.53,8.721228
8670.529,9.093114
8697.528,9.401598
8724.527,9.816002
8751.525,10.19322
8778.524,10.45995
8805.523,10.65061
8832.522,10.75228
8859.521,10.78971
8886.521,10.83535
8913.52,10.83257
8940.519,10.82344
8967.518,10.81315
8994.517,10.82962
9021.516,10.85599
9048.515,10.87864
9075.514,10.89141
9102.513,10.89415
9129.512,10.87878
9156.511,10.8495
9183.51,10.82105
9210.509,10.79657
9237.508,10.75524
9264.507,10.71259
9291.506,10.66926
9318.504,10.67709
9345.503,10.65759
9372.502,10.62933
9399.501,10.5661
9426.5,10.49518
9453.499,10.41081
9480.498,10.35603
9507.497,10.29287
9534.496,10.23252
9561.495,10.16466
9588.494,10.13034
9615.493,10.15208
9642.492,10.23327
9669.491,10.33788
9696.49,10.41693
9723.489,10.52727
9750.488,10.60442
9777.487,10.67961
9804.486,10.67
9831.485,10.67347
9858.484,10.78666
9885.482,10.87715
9912.481,10.97067
9939.48,11.05842
9966.479,11.13416
9993.479,11.17115
10020.48,11.21273
10047.48,11.25093
10074.48,11.29002
10101.47,11.34418
10128.47,11.3642
10155.47,11.36747
10182.47,11.3536
10209.47,11.38852
10236.47,11.37825
10263.47,11.40506
10290.47,11.35672
10317.47,11.31922
10344.47,11.33395
10371.46,11.30399
10398.46,11.27116
10425.46,11.22142
10452.46,11.1699
10479.46,11.14759
10506.46,11.01299
10533.46,10.85879
10560.46,10.70089
10587.46,10.47203
10614.46,10.16579
10641.45,9.759016
10668.45,9.408105
10695.45,9.139179
10722.45,9.042794
10749.45,9.118523
10776.45,9.231118
10803.45,9.487584
10830.45,9.694139
10857.45,9.946795
10884.45,10.17245
10911.44,10.42579
10938.44,10.58875
10965.44,10.78107
10992.44,10.95009
11019.44,11.07275
11046.44,11.20974
11073.44,11.3076
11100.44,11.26819
11127.44,11.26652
11154.43,11.42199
11181.43,11.41239
11208.43,11.50469
11235.43,11.64349
11262.43,11.70059
11289.43,11.62497
11316.43,11.77697
11343.43,11.86778
11370.43,11.80231
11397.43,11.80244
11424.42,11.95016
11451.42,11.94101
11478.42,11.83581
11505.42,11.81383
11532.42,12.1105
11559.42,11.98105
11586.42,11.88979
11613.42,11.9709
11640.42,12.03852
11667.42,12.10996
11694.41,12.0012
11721.41,12.01982
11748.41,12.09753
11775.41,12.07405
11802.41,12.0215
11829.41,12.16379
11856.41,12.12022
11883.41,12.17405
11910.41,12.06544
11937.41,12.14367
11964.4,12.06046
11991.4,11.97367
11999.12,11.98409

File: H0003LDPE_5.csv
Wavenumber,Intensity
3999.706,3.53465
4026.705,3.545675
4053.704,3.56517
4080.703,3.574942
4107.702,3.579126
4134.701,3.588133
4161.7,3.59575
4188.699,3.618441
4215.698,3.657269
4242.697,3.683064
4269.696,3.700369
4296.694,3.72527
4323.693,3.694921
4350.692,3.730023
4377.691,3.745434
4404.69,3.757082
4431.689,3.821351
4458.688,3.982494
4485.688,4.189023
4512.687,4.428747
4539.686,4.703135
4566.685,5.007128
4593.683,5.224337
4620.682,5.356791
4647.681,5.432605
4674.68,5.389577
4701.679,5.539061
4728.678,5.436021
4755.677,5.354325
4782.676,5.194849
4809.675,5.093844
4836.674,4.917946
4863.673,4.716588
4890.672,4.74
4917.671,4.77081
4944.67,4.741598
4971.669,4.555007
4998.668,4.712352
5025.667,4.8012
5052.666,4.816262
5079.665,4.785504
5106.664,4.761874
5133.663,4.809128
5160.662,4.753775
5187.661,4.740194
5214.66,4.743752
5241.659,4.774375
5268.658,4.790844
5295.657,4.774644
5322.656,4.817413
5349.655,4.718296
5376.654,4.568576
5403.652,4.428611
5430.651,4.283637
5457.65,4.23855
5484.649,4.176202
5511.648,4.173032
5538.647,4.178754
5565.646,4.188533
5592.646,4.257782
5619.645,4.163316
5646.644,4.056535
5673.643,4.009386
5700.642,4.081135
5727.641,4.083539
5754.639,4.005921
5781.638,3.992276
5808.637,4.005782
5835.636,4.056002
5862.635,4.29305
5889.634,5.129827
5916.633,5.944967
5943.632,7.426011
5970.631,8.526974
5997.63,9.419467
6024.629,10.09641
6051.628,10.57724
6078.627,10.90962
6105.626,11.10107
6132.625,11.32343
6159.624,11.60067
6186.623,11.85139
6213.622,11.99929
6240.621,12.09659
6267.62,12.15022
6294.619,12.1887
6321.618,12.1917
6348.617,12.10896
6375.616,11.90764
6402.615,11.7777
6429.614,11.51769
6456.613,11.14571
6483.612,10.09538
6510.61,10.46429
6537.609,10.66661
6564.608,10.77123
6591.607,10.87123
6618.606,10.85632
6645.605,10.74809
6672.604,10.57294
6699.604,10.32886
6726.603,10.02391
6753.602,9.724758
6780.601,9.358036
6807.6,8.801499
6834.599,8.2457
6861.598,7.941586
6888.597,7.554932
6915.596,7.200671
6942.594,6.698717
6969.593,6.54277
6996.592,6.453146
7023.591,6.223869
7050.59,6.110938
7077.589,6.185735
7104.588,6.715401
7131.587,7.147198
7158.586,6.300578
7185.585,5.908485
7212.584,7.283355
7239.583,8.52037
7266.582,9.611568
7293.581,10.66776
7320.58,11.57785
7347.579,12.09435
7374.578,12.60888
7401.577,12.98179
7428.576,13.12916
7455.575,13.20352
7482.574,13.24185
7509.573,13.2336
7536.572,13.20039
7563.571,13.12514
7590.57,13.04285
7617.569,12.92925
7644.568,12.77934
7671.566,12.64137
7698.565,12.54715
7725.564,12.4386
7752.563,12.3372
7779.563,12.20777
7806.562,12.10179
7833.561,11.95655
7860.56,11.78007
7887.559,11.54916
7914.558,11.26299
7941.557,10.94345
7968.556,10.52803
7995.555,10.08685
8022.554,9.562731
8049.553,8.968419
8076.552,8.29565
8103.551,7.567535
8130.55,6.730994
8157.548,5.916762
8184.547,5.21018
8211.546,4.852845
8238.545,4.828844
8265.544,4.923295
8292.543,5.243943
8319.542,5.694913
8346.541,6.211293
8373.54,6.793621
8400.539,7.220411
8427.538,7.395926
8454.537,8.115003
8481.536,8.766512
8508.535,9.268769
8535.534,9.538507
8562.533,9.157334
8589.532,9.853955
8616.531,10.88397
8643.53,11.68081
8670.529,12.16896
8697.528,12.58246
8724.527,13.12696
8751.525,13.61139
8778.524,13.95555
8805.523,14.17845
8832.522,14.33561
8859.521,14.38229
8886.521,14.43663
8913.52,14.4205
8940.519,14.4102
8967.518,14.3963
8994.517,14.43914
9021.516,14.44738
9048.515,14.48394
9075.514,14.49123
9102.513,14.49195
9129.512,14.47975
9156.511,14.42756
9183.51,14.4101
9210.509,14.34773
9237.508,14.30354
9264.507,14.24938
9291.506,14.21721
9318.504,14.22787
9345.503,14.19319
9372.502,14.13991
9399.501,14.06043
9426.5,13.99326
9453.499,13.856
9480.498,13.78552
9507.497,13.70957
9534.496,13.65027
9561.495,13.56553
9588.494,13.49131
9615.493,13.53783
9642.492,13.62748
9669.491,13.77245
9696.49,13.88383
9723.489,14.01155
9750.488,14.13435
9777.487,14.22212
9804.486,14.17824
9831.485,14.22034
9858.484,14.33385
9885.482,14.45872
9912.481,14.56542
9939.48,14.70042
9966.479,14.78893
9993.479,14.84111
10020.48,14.89397
10047.48,14.96949
10074.48,15.01942
10101.47,15.06568
10128.47,15.10549
10155.47,15.10653
10182.47,15.06779
10209.47,15.11571
10236.47,15.10684
10263.47,15.12562
10290.47,15.09681
10317.47,15.06027
10344.47,15.04149
10371.46,15.01448
10398.46,14.94887
10425.46,14.88944
10452.46,14.86902
10479.46,14.79894
10506.46,14.63495
10533.46,14.46343
10560.46,14.22571
10587.46,13.96876
10614.46,13.54175
10641.45,13.06119
10668.45,12.55876
10695.45,12.2301
10722.45,12.08792
10749.45,12.12543
10776.45,12.29285
10803.45,12.63197
10830.45,12.94949
10857.45,13.26112
10884.45,13.57166
10911.44,13.8813
10938.44,14.13371
10965.44,14.39176
10992.44,14.62503
11019.44,14.73867
11046.44,14.82022
11073.44,14.9506
11100.44,15.03154
11127.44,15.02093
11154.43,15.18142
11181.43,15.19606
11208.43,15.37155
11235.43,15.43163
11262.43,15.54259
11289.43,15.50318
11316.43,15.57333
11343.43,15.66491
11370.43,15.62711
11397.43,15.69036
11424.42,15.779
11451.42,15.8088
11478.42,15.83231
11505.42,15.72821
11532.42,15.9278
11559.42,15.99626
11586.42,15.92969
11613.42,15.88826
11640.42,16.03076
11667.42,16.04147
11694.41,15.97867
11721.41,15.92091
11748.41,16.06521
11775.41,16.08085
11802.41,16.05567
11829.41,15.85951
11856.41,16.04713
11883.41,16.08881
11910.41,15.84241
11937.41,15.95207
11964.4,15.94436
11991.4,15.73116
11999.12,15.93708

File: H0003LDPE_6.csv
Wavenumber,Intensity
3999.706,3.228256
4026.705,3.238801
4053.704,3.258042
4080.703,3.269039
4107.702,3.269622
4134.701,3.280521
4161.7,3.287066
4188.699,3.311923
4215.698,3.343196
4242.697,3.360979
4269.696,3.382503
4296.694,3.403762
4323.693,3.377039
4350.692,3.401379
4377.691,3.417244
4404.69,3.430597
4431.689,3.485682
4458.688,3.630809
4485.688,3.807272
4512.687,4.022515
4539.686,4.255932
4566.685,4.527319
4593.683,4.71534
4620.682,4.834557
4647.681,4.900759
4674.68,4.863822
4701.679,4.990641
4728.678,4.905553
4755.677,4.832397
4782.676,4.695555
4809.675,4.608108
4836.674,4.450982
4863.673,4.276328
4890.672,4.296944
4917.671,4.325624
4944.67,4.299069
4971.669,4.133073
4998.668,4.270861
5025.667,4.344716
5052.666,4.365149
5079.665,4.336165
5106.664,4.321696
5133.663,4.361127
5160.662,4.312578
5187.661,4.298528
5214.66,4.305609
5241.659,4.33448
5268.658,4.343279
5295.657,4.332994
5322.656,4.369529
5349.655,4.283061
5376.654,4.14823
5403.652,4.026017
5430.651,3.894697
5457.65,3.859382
5484.649,3.804125
5511.648,3.804682
5538.647,3.800249
5565.646,3.814555
5592.646,3.876652
5619.645,3.795569
5646.644,3.700382
5673.643,3.657028
5700.642,3.717249
5727.641,3.722897
5754.639,3.659299
5781.638,3.643995
5808.637,3.653627
5835.636,3.699575
5862.635,3.902939
5889.634,4.649237
5916.633,5.366696
5943.632,6.690262
5970.631,7.676286
5997.63,8.471326
6024.629,9.070751
6051.628,9.497856
6078.627,9.794362
6105.626,9.969893
6132.625,10.17321
6159.624,10.42405
6186.623,10.63741
6213.622,10.7755
6240.621,10.86566
6267.62,10.91168
6294.619,10.94807
6321.618,10.95239
6348.617,10.87731
6375.616,10.70017
6402.615,10.58505
6429.614,10.35795
6456.613,10.02147
6483.612,9.088316
6510.61,9.418211
6537.609,9.602602
6564.608,9.695972
6591.607,9.784602
6618.606,9.770566
6645.605,9.673874
6672.604,9.524075
6699.604,9.30158
6726.603,9.034985
6753.602,8.767111
6780.601,8.435384
6807.6,7.942441
6834.599,7.44624
6861.598,7.172887
6888.597,6.828105
6915.596,6.514019
6942.594,6.062011
6969.593,5.917109
6996.592,5.833533
7023.591,5.633423
7050.59,5.532417
7077.589,5.604164
7104.588,6.087417
7131.587,6.462207
7158.586,5.707204
7185.585,5.351408
7212.584,6.586962
7239.583,7.697248
7266.582,8.675347
7293.581,9.616697
7320.58,10.44211
7347.579,10.89264
7374.578,11.36035
7401.577,11.68195
7428.576,11.81325
7455.575,11.89491
7482.574,11.92358
7509.573,11.91596
7536.572,11.88635
7563.571,11.81932
7590.57,11.7459
7617.569,11.65605
7644.568,11.51588
7671.566,11.39664
7698.565,11.30563
7725.564,11.21781
7752.563,11.1232
7779.563,11.00735
7806.562,10.90988
7833.561,10.79084
7860.56,10.63106
7887.559,10.42318
7914.558,10.17524
7941.557,9.879858
7968.556,9.521521
7995.555,9.11749
8022.554,8.646957
8049.553,8.111588
8076.552,7.514451
8103.551,6.848831
8130.55,6.101439
8157.548,5.364489
8184.547,4.727509
8211.546,4.417275
8238.545,4.392034
8265.544,4.485826
8292.543,4.763088
8319.542,5.167917
8346.541,5.645638
8373.54,6.151891
8400.539,6.540397
8427.538,6.718995
8454.537,7.346233
8481.536,7.937093
8508.535,8.405706
8535.534,8.633186
8562.533,8.296388
8589.532,8.929254
8616.531,9.847469
8643.53,10.56573
8670.529,10.99472
8697.528,11.36027
8724.527,11.84209
8751.525,12.30232
8778.524,12.59861
8805.523,12.80964
8832.522,12.92154
8859.521,12.9849
8886.521,13.0112
8913.52,13.02007
8940.519,13.00704
8967.518,13.00888
8994.517,13.03409
9021.516,13.03532
9048.515,13.06697
9075.514,13.08534
9102.513,13.08156
9129.512,13.07251
9156.511,13.04119
9183.51,13.02763
9210.509,12.97526
9237.508,12.92135
9264.507,12.86986
9291.506,12.83263
9318.504,12.85424
9345.503,12.82281
9372.502,12.79012
9399.501,12.70904
9426.5,12.63239
9453.499,12.54307
9480.498,12.46609
9507.497,12.41483
9534.496,12.3527
9561.495,12.27564
9588.494,12.22409
9615.493,12.23589
9642.492,12.32811
9669.491,12.47841
9696.49,12.57011
9723.489,12.69099
9750.488,12.79446
9777.487,12.83272
9804.486,12.82258
9831.485,12.86011
9858.484,12.96769
9885.482,13.08029
9912.481,13.20212
9939.48,13.29194
9966.479,13.39275
9993.479,13.44129
10020.48,13.51486
10047.48,13.55997
10074.48,13.5516
10101.47,13.63466
10128.47,13.67583
10155.47,13.64326
10182.47,13.66271
10209.47,13.67348
10236.47,13.6747
10263.47,13.68416
10290.47,13.64605
10317.47,13.60014
10344.47,13.60499
10371.46,13.55862
10398.46,13.52864
10425.46,13.50379
10452.46,13.44998
10479.46,13.39495
10506.46,13.26774
10533.46,13.10375
10560.46,12.92721
10587.46,12.63969
10614.46,12.27899
10641.45,11.86698
10668.45,11.41165
10695.45,11.08392
10722.45,11.0149
10749.45,11.04246
10776.45,11.15281
10803.45,11.50311
10830.45,11.72517
10857.45,12.04862
10884.45,12.30729
10911.44,12.5928
10938.44,12.85896
10965.44,13.02124
10992.44,13.20358
11019.44,13.35541
11046.44,13.4515
11073.44,13.53573
11100.44,13.6117
11127.44,13.65517
11154.43,13.77123
11181.43,13.73891
11208.43,13.89641
11235.43,13.94506
11262.43,14.09651
11289.43,14.02477
11316.43,14.20751
11343.43,14.23086
11370.43,14.18138
11397.43,14.19527
11424.42,14.39212
11451.42,14.37039
11478.42,14.34891
11505.42,14.28847
11532.42,14.46301
11559.42,14.37934
11586.42,14.41642
11613.42,14.42006
11640.42,14.49191
11667.42,14.58251
11694.41,14.43938
11721.41,14.52407
11748.41,14.57575
11775.41,14.49708
11802.41,14.43596
11829.41,14.38347
11856.41,14.49146
11883.41,14.67448
11910.41,14.47537
11937.41,14.48787
11964.4,14.591
11991.4,14.44202
11999.12,14.42999