Folder: nir_corr_po/Data/NIR (part 4)

File: H0007HDPE_1.csv
Wavenumber,Intensity
3999.706,1.963603
4026.705,1.936154
4053.704,1.935194
4080.703,1.924559
4107.702,1.922943
4134.701,1.916789
4161.7,1.927781
4188.699,1.933411
4215.698,1.968591
4242.697,1.980041
4269.696,2.012296
4296.694,2.041283
4323.693,1.970639
4350.692,2.028188
4377.691,2.089569
4404.69,2.203927
4431.689,2.35242
4458.688,2.528687
4485.688,2.715369
4512.687,2.93932
4539.686,3.172492
4566.685,3.44923
4593.683,3.616811
4620.682,3.703666
4647.681,3.755964
4674.68,3.666624
4701.679,3.837958
4728.678,3.714803
4755.677,3.614057
4782.676,3.428459
4809.675,3.326954
4836.674,3.169961
4863.673,2.989191
4890.672,3.028607
4917.671,3.063468
4944.67,3.032867
4971.669,2.880406
4998.668,3.028847
5025.667,3.121317
5052.666,3.129535
5079.665,3.090199
5106.664,3.069912
5133.663,3.117023
5160.662,3.045025
5187.661,3.039647
5214.66,3.046581
5241.659,3.079793
5268.658,3.116561
5295.657,3.092272
5322.656,3.155042
5349.655,3.047537
5376.654,2.903549
5403.652,2.784872
5430.651,2.650356
5457.65,2.60479
5484.649,2.52858
5511.648,2.548384
5538.647,2.549494
5565.646,2.559043
5592.646,2.669688
5619.645,2.542288
5646.644,2.390671
5673.643,2.273454
5700.642,2.44756
5727.641,2.372563
5754.639,2.228707
5781.638,2.160905
5808.637,2.241511
5835.636,2.375869
5862.635,2.886944
5889.634,3.966565
5916.633,4.670772
5943.632,5.391677
5970.631,6.237067
5997.63,7.137364
6024.629,7.866496
6051.628,8.386501
6078.627,8.731803
6105.626,8.937398
6132.625,9.138813
6159.624,9.308693
6186.623,9.480471
6213.622,9.589876
6240.621,9.670811
6267.62,9.692049
6294.619,9.70993
6321.618,9.711615
6348.617,9.581118
6375.616,9.306777
6402.615,9.137909
6429.614,8.838775
6456.613,8.387414
6483.612,7.171848
6510.61,7.77586
6537.609,8.058708
6564.608,8.230744
6591.607,8.378619
6618.606,8.370506
6645.605,8.282351
6672.604,8.1204
6699.604,7.875958
6726.603,7.553869
6753.602,7.281672
6780.601,6.925975
6807.6,6.350603
6834.599,5.764494
6861.598,5.519693
6888.597,5.206905
6915.596,4.942306
6942.594,4.471694
6969.593,4.38203
6996.592,4.29928
7023.591,4.088352
7050.59,4.052502
7077.589,4.214092
7104.588,4.680708
7131.587,5.062782
7158.586,4.227306
7185.585,3.97181
7212.584,5.360645
7239.583,6.543901
7266.582,7.685318
7293.581,8.740929
7320.58,9.672707
7347.579,10.26303
7374.578,10.60123
7401.577,10.77769
7428.576,10.8778
7455.575,10.9576
7482.574,10.98914
7509.573,10.95333
7536.572,10.90153
7563.571,10.81326
7590.57,10.71033
7617.569,10.57666
7644.568,10.38546
7671.566,10.23248
7698.565,10.1421
7725.564,10.03111
7752.563,9.933715
7779.563,9.798556
7806.562,9.70049
7833.561,9.563788
7860.56,9.379549
7887.559,9.136924
7914.558,8.84125
7941.557,8.517211
7968.556,8.120048
7995.555,7.678743
8022.554,7.165833
8049.553,6.595328
8076.552,5.97381
8103.551,5.333806
8130.55,4.612998
8157.548,3.935683
8184.547,3.340625
8211.546,3.027312
8238.545,3.038485
8265.544,3.139725
8292.543,3.470113
8319.542,3.904163
8346.541,4.41998
8373.54,5.089866
8400.539,5.52857
8427.538,5.524909
8454.537,6.164557
8481.536,6.780464
8508.535,7.267657
8535.534,7.468626
8562.533,6.794738
8589.532,7.674302
8616.531,8.963836
8643.53,9.828588
8670.529,10.37814
8697.528,10.87753
8724.527,11.41596
8751.525,11.92413
8778.524,12.28699
8805.523,12.48684
8832.522,12.61267
8859.521,12.66267
8886.521,12.67803
8913.52,12.65007
8940.519,12.61968
8967.518,12.62178
8994.517,12.64355
9021.516,12.6932
9048.515,12.74448
9075.514,12.74224
9102.513,12.77366
9129.512,12.73154
9156.511,12.70464
9183.51,12.64298
9210.509,12.60247
9237.508,12.5368
9264.507,12.50226
9291.506,12.45715
9318.504,12.46304
9345.503,12.44302
9372.502,12.36565
9399.501,12.2805
9426.5,12.1637
9453.499,12.02921
9480.498,11.93027
9507.497,11.83621
9534.496,11.75146
9561.495,11.64625
9588.494,11.55772
9615.493,11.59572
9642.492,11.76462
9669.491,11.95086
9696.49,12.11431
9723.489,12.29477
9750.488,12.48499
9777.487,12.55731
9804.486,12.57666
9831.485,12.56153
9858.484,12.71846
9885.482,12.93525
9912.481,13.08896
9939.48,13.22023
9966.479,13.36799
9993.479,13.44107
10020.48,13.48217
10047.48,13.57032
10074.48,13.66906
10101.47,13.70303
10128.47,13.73434
10155.47,13.73472
10182.47,13.74395
10209.47,13.7535
10236.47,13.74413
10263.47,13.72735
10290.47,13.70181
10317.47,13.65749
10344.47,13.63106
10371.46,13.60085
10398.46,13.56933
10425.46,13.53439
10452.46,13.40719
10479.46,13.32786
10506.46,13.19249
10533.46,12.98214
10560.46,12.68858
10587.46,12.26027
10614.46,11.71281
10641.45,11.16925
10668.45,10.61727
10695.45,10.18424
10722.45,9.977957
10749.45,10.07756
10776.45,10.36563
10803.45,10.77217
10830.45,11.15537
10857.45,11.60103
10884.45,12.11874
10911.44,12.51349
10938.44,12.80115
10965.44,13.1766
10992.44,13.39252
11019.44,13.56809
11046.44,13.68449
11073.44,13.81331
11100.44,13.81306
11127.44,13.80912
11154.43,13.98789
11181.43,14.02902
11208.43,14.28355
11235.43,14.37577
11262.43,14.42954
11289.43,14.53444
11316.43,14.56867
11343.43,14.67143
11370.43,14.6292
11397.43,14.74002
11424.42,14.75002
11451.42,14.91343
11478.42,14.95547
11505.42,14.94229
11532.42,14.99922
11559.42,15.1316
11586.42,15.19358
11613.42,15.1318
11640.42,15.08449
11667.42,15.07751
11694.41,15.16537
11721.41,15.08642
11748.41,15.2056
11775.41,15.20108
11802.41,15.02677
11829.41,15.03726
11856.41,15.12249
11883.41,15.21532
11910.41,15.15692
11937.41,15.20641
11964.4,15.1148
11991.4,15.08766
11999.12,15.18032

File: H0007HDPE_2.csv
Wavenumber,Intensity
3999.706,3.073153
4026.705,3.063359
4053.704,3.066032
4080.703,3.063013
4107.702,3.063525
4134.701,3.071263
4161.7,3.081506
4188.699,3.094079
4215.698,3.139149
4242.697,3.156551
4269.696,3.19368
4296.694,3.220303
4323.693,3.164892
4350.692,3.215073
4377.691,3.266862
4404.69,3.380785
4431.689,3.562724
4458.688,3.76506
4485.688,3.963272
4512.687,4.204125
4539.686,4.472703
4566.685,4.768707
4593.683,4.946269
4620.682,5.049511
4647.681,5.101658
4674.68,5.01955
4701.679,5.195989
4728.678,5.081172
4755.677,4.985167
4782.676,4.799602
4809.675,4.697134
4836.674,4.540478
4863.673,4.352524
4890.672,4.398921
4917.671,4.440252
4944.67,4.410921
4971.669,4.236012
4998.668,4.399507
5025.667,4.496093
5052.666,4.518855
5079.665,4.48382
5106.664,4.469884
5133.663,4.528816
5160.662,4.455094
5187.661,4.450145
5214.66,4.462691
5241.659,4.506092
5268.658,4.537668
5295.657,4.518613
5322.656,4.588135
5349.655,4.462019
5376.654,4.293134
5403.652,4.168587
5430.651,3.994184
5457.65,3.952131
5484.649,3.865278
5511.648,3.88548
5538.647,3.887771
5565.646,3.899989
5592.646,4.031729
5619.645,3.880007
5646.644,3.686545
5673.643,3.540803
5700.642,3.759563
5727.641,3.664561
5754.639,3.492967
5781.638,3.424266
5808.637,3.507423
5835.636,3.67374
5862.635,4.290174
5889.634,5.443984
5916.633,6.161515
5943.632,6.88126
5970.631,7.7005
5997.63,8.553388
6024.629,9.250622
6051.628,9.75105
6078.627,10.07344
6105.626,10.2709
6132.625,10.46964
6159.624,10.63315
6186.623,10.79398
6213.622,10.90151
6240.621,10.97472
6267.62,10.99427
6294.619,11.00863
6321.618,11.01283
6348.617,10.89281
6375.616,10.6341
6402.615,10.47733
6429.614,10.1892
6456.613,9.759086
6483.612,8.604314
6510.61,9.169704
6537.609,9.447403
6564.608,9.606714
6591.607,9.756608
6618.606,9.74698
6645.605,9.664558
6672.604,9.504969
6699.604,9.274145
6726.603,8.978903
6753.602,8.72134
6780.601,8.386492
6807.6,7.836641
6834.599,7.269568
6861.598,7.031759
6888.597,6.725661
6915.596,6.461957
6942.594,6.000133
6969.593,5.89896
6996.592,5.809972
7023.591,5.596291
7050.59,5.55394
7077.589,5.724771
7104.588,6.189316
7131.587,6.56952
7158.586,5.730237
7185.585,5.469875
7212.584,6.874895
7239.583,8.035189
7266.582,9.138274
7293.581,10.14445
7320.58,11.03748
7347.579,11.60244
7374.578,11.9255
7401.577,12.0956
7428.576,12.20235
7455.575,12.26897
7482.574,12.30883
7509.573,12.27777
7536.572,12.22909
7563.571,12.14317
7590.57,12.05181
7617.569,11.91573
7644.568,11.74541
7671.566,11.59819
7698.565,11.50485
7725.564,11.40729
7752.563,11.30992
7779.563,11.17918
7806.562,11.08508
7833.561,10.95802
7860.56,10.7862
7887.559,10.54212
7914.558,10.27433
7941.557,9.956314
7968.556,9.570052
7995.555,9.152325
8022.554,8.66785
8049.553,8.106384
8076.552,7.506055
8103.551,6.86197
8130.55,6.137933
8157.548,5.435488
8184.547,4.780226
8211.546,4.439078
8238.545,4.44216
8265.544,4.562073
8292.543,4.921657
8319.542,5.393475
8346.541,5.938281
8373.54,6.611349
8400.539,7.050329
8427.538,7.033475
8454.537,7.687493
8481.536,8.28691
8508.535,8.760012
8535.534,8.942411
8562.533,8.308125
8589.532,9.145856
8616.531,10.39593
8643.53,11.2285
8670.529,11.75062
8697.528,12.23989
8724.527,12.75008
8751.525,13.22982
8778.524,13.57896
8805.523,13.7873
8832.522,13.8968
8859.521,13.94394
8886.521,13.95802
8913.52,13.94521
8940.519,13.91215
8967.518,13.90921
8994.517,13.93426
9021.516,13.97444
9048.515,14.00975
9075.514,14.03216
9102.513,14.0625
9129.512,14.01052
9156.511,14.00805
9183.51,13.947
9210.509,13.88989
9237.508,13.82053
9264.507,13.78067
9291.506,13.77288
9318.504,13.74019
9345.503,13.74757
9372.502,13.69191
9399.501,13.57943
9426.5,13.47875
9453.499,13.34667
9480.498,13.24162
9507.497,13.18133
9534.496,13.09077
9561.495,12.98372
9588.494,12.89296
9615.493,12.93165
9642.492,13.08216
9669.491,13.27982
9696.49,13.42304
9723.489,13.63
9750.488,13.77628
9777.487,13.85992
9804.486,13.87659
9831.485,13.86645
9858.484,14.01882
9885.482,14.22347
9912.481,14.34274
9939.48,14.52945
9966.479,14.63303
9993.479,14.71815
10020.48,14.77273
10047.48,14.89743
10074.48,14.95622
10101.47,14.9875
10128.47,15.03611
10155.47,14.99672
10182.47,15.01549
10209.47,15.02579
10236.47,15.0017
10263.47,15.02067
10290.47,14.97986
10317.47,14.9346
10344.47,14.91648
10371.46,14.88101
10398.46,14.82759
10425.46,14.82196
10452.46,14.71397
10479.46,14.61051
10506.46,14.4703
10533.46,14.25277
10560.46,13.95696
10587.46,13.57156
10614.46,13.09606
10641.45,12.57064
10668.45,11.94931
10695.45,11.53361
10722.45,11.38909
10749.45,11.47122
10776.45,11.77432
10803.45,12.1344
10830.45,12.54366
10857.45,12.95018
10884.45,13.43528
10911.44,13.75709
10938.44,14.14017
10965.44,14.46726
10992.44,14.70644
11019.44,14.84006
11046.44,14.98117
11073.44,15.04681
11100.44,15.06812
11127.44,15.1605
11154.43,15.18975
11181.43,15.24996
11208.43,15.49256
11235.43,15.56813
11262.43,15.73784
11289.43,15.78927
11316.43,15.76922
11343.43,15.91682
11370.43,15.859
11397.43,15.92951
11424.42,16.07937
11451.42,16.14494
11478.42,16.22807
11505.42,16.10762
11532.42,16.20722
11559.42,16.32781
11586.42,16.40167
11613.42,16.36278
11640.42,16.39665
11667.42,16.23221
11694.41,16.37629
11721.41,16.26623
11748.41,16.32161
11775.41,16.33337
11802.41,16.32923
11829.41,16.28182
11856.41,16.32555
11883.41,16.31021
11910.41,16.43877
11937.41,16.41074
11964.4,16.46487
11991.4,16.46025
11999.12,16.51515

File: H0007HDPE_3.csv
Wavenumber,Intensity
3999.706,1.614875
4026.705,1.588448
4053.704,1.583144
4080.703,1.568749
4107.702,1.560316
4134.701,1.563425
4161.7,1.572908
4188.699,1.573664
4215.698,1.607125
4242.697,1.61514
4269.696,1.645093
4296.694,1.674896
4323.693,1.598362
4350.692,1.655822
4377.691,1.715474
4404.69,1.845343
4431.689,2.05212
4458.688,2.277257
4485.688,2.519013
4512.687,2.782542
4539.686,3.040982
4566.685,3.338658
4593.683,3.516749
4620.682,3.611143
4647.681,3.66338
4674.68,3.567457
4701.679,3.748315
4728.678,3.626793
4755.677,3.518894
4782.676,3.313036
4809.675,3.210216
4836.674,3.029179
4863.673,2.820896
4890.672,2.867638
4917.671,2.909589
4944.67,2.880648
4971.669,2.695695
4998.668,2.875971
5025.667,2.976552
5052.666,2.989414
5079.665,2.944787
5106.664,2.917326
5133.663,2.97483
5160.662,2.89281
5187.661,2.881984
5214.66,2.898189
5241.659,2.939601
5268.658,2.971508
5295.657,2.952319
5322.656,3.023904
5349.655,2.890891
5376.654,2.70218
5403.652,2.577361
5430.651,2.386468
5457.65,2.347303
5484.649,2.253225
5511.648,2.273814
5538.647,2.276145
5565.646,2.289475
5592.646,2.433957
5619.645,2.268136
5646.644,2.058029
5673.643,1.890809
5700.642,2.131026
5727.641,2.027255
5754.639,1.832619
5781.638,1.759717
5808.637,1.85031
5835.636,2.029899
5862.635,2.70648
5889.634,3.931164
5916.633,4.682204
5943.632,5.418273
5970.631,6.270175
5997.63,7.161555
6024.629,7.877741
6051.628,8.386229
6078.627,8.719518
6105.626,8.922307
6132.625,9.125005
6159.624,9.290578
6186.623,9.451088
6213.622,9.560704
6240.621,9.644063
6267.62,9.665881
6294.619,9.692979
6321.618,9.694238
6348.617,9.564464
6375.616,9.31244
6402.615,9.152995
6429.614,8.861259
6456.613,8.434284
6483.612,7.244094
6510.61,7.836755
6537.609,8.118764
6564.608,8.288215
6591.607,8.440716
6618.606,8.435126
6645.605,8.348737
6672.604,8.188818
6699.604,7.953653
6726.603,7.644249
6753.602,7.37783
6780.601,7.024039
6807.6,6.445941
6834.599,5.85628
6861.598,5.609303
6888.597,5.284164
6915.596,5.008749
6942.594,4.513573
6969.593,4.421285
6996.592,4.328865
7023.591,4.086822
7050.59,4.057754
7077.589,4.234868
7104.588,4.741693
7131.587,5.150488
7158.586,4.261484
7185.585,3.965102
7212.584,5.463972
7239.583,6.691854
7266.582,7.824327
7293.581,8.853947
7320.58,9.779541
7347.579,10.3345
7374.578,10.68513
7401.577,10.85518
7428.576,10.95938
7455.575,11.03999
7482.574,11.07508
7509.573,11.0384
7536.572,10.99622
7563.571,10.91312
7590.57,10.81167
7617.569,10.6797
7644.568,10.50332
7671.566,10.3537
7698.565,10.2695
7725.564,10.16256
7752.563,10.06612
7779.563,9.941099
7806.562,9.852234
7833.561,9.712769
7860.56,9.543888
7887.559,9.29121
7914.558,9.016068
7941.557,8.685093
7968.556,8.292562
7995.555,7.858247
8022.554,7.351501
8049.553,6.766182
8076.552,6.131732
8103.551,5.445238
8130.55,4.683713
8157.548,3.90258
8184.547,3.199484
8211.546,2.819996
8238.545,2.816964
8265.544,2.957662
8292.543,3.359016
8319.542,3.866296
8346.541,4.447077
8373.54,5.186299
8400.539,5.658799
8427.538,5.633725
8454.537,6.311734
8481.536,6.962506
8508.535,7.461985
8535.534,7.665127
8562.533,6.989668
8589.532,7.886658
8616.531,9.188816
8643.53,10.04116
8670.529,10.57434
8697.528,11.07035
8724.527,11.5902
8751.525,12.08819
8778.524,12.43127
8805.523,12.63654
8832.522,12.73795
8859.521,12.78656
8886.521,12.80499
8913.52,12.78496
8940.519,12.76698
8967.518,12.76549
8994.517,12.7702
9021.516,12.82861
9048.515,12.85543
9075.514,12.86668
9102.513,12.90744
9129.512,12.87794
9156.511,12.84788
9183.51,12.78225
9210.509,12.7344
9237.508,12.69683
9264.507,12.658
9291.506,12.61661
9318.504,12.6112
9345.503,12.61525
9372.502,12.51315
9399.501,12.42877
9426.5,12.30785
9453.499,12.21104
9480.498,12.09348
9507.497,12.02785
9534.496,11.93845
9561.495,11.82039
9588.494,11.72659
9615.493,11.7735
9642.492,11.93865
9669.491,12.1359
9696.49,12.29104
9723.489,12.47709
9750.488,12.6674
9777.487,12.71803
9804.486,12.73838
9831.485,12.74662
9858.484,12.91263
9885.482,13.10878
9912.481,13.24542
9939.48,13.40046
9966.479,13.52776
9993.479,13.6225
10020.48,13.69208
10047.48,13.76132
10074.48,13.84178
10101.47,13.89304
10128.47,13.92271
10155.47,13.89008
10182.47,13.92423
10209.47,13.93386
10236.47,13.93383
10263.47,13.90416
10290.47,13.89151
10317.47,13.83998
10344.47,13.80292
10371.46,13.80978
10398.46,13.75493
10425.46,13.69728
10452.46,13.62084
10479.46,13.50693
10506.46,13.36677
10533.46,13.15891
10560.46,12.85226
10587.46,12.46839
10614.46,12.0009
10641.45,11.47991
10668.45,10.83307
10695.45,10.40964
10722.45,10.24788
10749.45,10.29681
10776.45,10.62479
10803.45,11.00445
10830.45,11.409
10857.45,11.89599
10884.45,12.32443
10911.44,12.71185
10938.44,13.03006
10965.44,13.39415
10992.44,13.6386
11019.44,13.75325
11046.44,13.86296
11073.44,14.00935
11100.44,14.03349
11127.44,14.09614
11154.43,14.18692
11181.43,14.2546
11208.43,14.42795
11235.43,14.57808
11262.43,14.6413
11289.43,14.68419
11316.43,14.71791
11343.43,14.86121
11370.43,14.89902
11397.43,14.98946
11424.42,15.01466
11451.42,15.08565
11478.42,15.26893
11505.42,15.09849
11532.42,15.20907
11559.42,15.28222
11586.42,15.34531
11613.42,15.28738
11640.42,15.33048
11667.42,15.2592
11694.41,15.34013
11721.41,15.24254
11748.41,15.31205
11775.41,15.29131
11802.41,15.22863
11829.41,15.18914
11856.41,15.32823
11883.41,15.27346
11910.41,15.31658
11937.41,15.3017
11964.4,15.43771
11991.4,15.28689
11999.12,15.28561

File: H0007HDPE_4.csv
Wavenumber,Intensity
3999.706,3.14336
4026.705,3.107404
4053.704,3.116838
4080.703,3.105618
4107.702,3.091757
4134.701,3.098049
4161.7,3.101268
4188.699,3.121948
4215.698,3.16106
4242.697,3.175552
4269.696,3.214381
4296.694,3.249728
4323.693,3.158818
4350.692,3.228845
4377.691,3.305118
4404.69,3.460411
4431.689,3.721646
4458.688,4.023766
4485.688,4.345711
4512.687,4.703707
4539.686,5.050074
4566.685,5.446796
4593.683,5.687101
4620.682,5.811085
4647.681,5.882978
4674.68,5.761896
4701.679,6.003827
4728.678,5.838136
4755.677,5.701538
4782.676,5.433039
4809.675,5.29346
4836.674,5.056923
4863.673,4.783799
4890.672,4.842483
4917.671,4.896052
4944.67,4.862369
4971.669,4.613188
4998.668,4.862907
5025.667,4.99197
5052.666,5.011332
5079.665,4.951519
5106.664,4.918201
5133.663,4.991864
5160.662,4.886986
5187.661,4.874473
5214.66,4.894104
5241.659,4.956045
5268.658,4.992944
5295.657,4.96195
5322.656,5.063846
5349.655,4.879582
5376.654,4.642415
5403.652,4.465915
5430.651,4.195867
5457.65,4.149285
5484.649,4.021849
5511.648,4.045257
5538.647,4.048467
5565.646,4.073786
5592.646,4.265628
5619.645,4.047861
5646.644,3.765876
5673.643,3.548949
5700.642,3.86195
5727.641,3.722497
5754.639,3.470846
5781.638,3.382195
5808.637,3.488278
5835.636,3.725845
5862.635,4.636909
5889.634,6.243953
5916.633,7.191315
5943.632,8.113832
5970.631,9.157695
5997.63,10.23337
6024.629,11.07045
6051.628,11.65488
6078.627,12.04704
6105.626,12.27917
6132.625,12.50866
6159.624,12.69485
6186.623,12.87494
6213.622,12.99766
6240.621,13.08603
6267.62,13.11739
6294.619,13.14573
6321.618,13.1458
6348.617,12.99618
6375.616,12.71193
6402.615,12.53861
6429.614,12.19868
6456.613,11.70001
6483.612,10.30206
6510.61,11.00485
6537.609,11.33877
6564.608,11.53486
6591.607,11.7071
6618.606,11.70346
6645.605,11.60087
6672.604,11.4039
6699.604,11.13324
6726.603,10.76473
6753.602,10.44935
6780.601,10.03563
6807.6,9.330454
6834.599,8.623009
6861.598,8.31263
6888.597,7.919452
6915.596,7.573876
6942.594,6.955738
6969.593,6.83296
6996.592,6.719081
7023.591,6.418324
7050.59,6.362406
7077.589,6.606165
7104.588,7.234297
7131.587,7.734933
7158.586,6.619713
7185.585,6.258307
7212.584,8.134108
7239.583,9.631956
7266.582,10.96939
7293.581,12.18081
7320.58,13.22371
7347.579,13.84655
7374.578,14.23062
7401.577,14.42107
7428.576,14.51615
7455.575,14.61444
7482.574,14.6504
7509.573,14.6188
7536.572,14.56526
7563.571,14.47402
7590.57,14.3644
7617.569,14.22249
7644.568,14.02388
7671.566,13.86442
7698.565,13.7504
7725.564,13.63947
7752.563,13.53389
7779.563,13.39204
7806.562,13.2873
7833.561,13.1343
7860.56,12.93733
7887.559,12.65895
7914.558,12.33985
7941.557,11.96105
7968.556,11.49987
7995.555,10.99094
8022.554,10.38859
8049.553,9.698793
8076.552,8.921836
8103.551,8.097133
8130.55,7.132068
8157.548,6.168695
8184.547,5.242127
8211.546,4.761922
8238.545,4.79289
8265.544,4.956802
8292.543,5.462778
8319.542,6.131567
8346.541,6.8613
8373.54,7.772461
8400.539,8.381146
8427.538,8.33074
8454.537,9.15832
8481.536,9.917651
8508.535,10.52958
8535.534,10.76561
8562.533,9.958042
8589.532,11.00601
8616.531,12.52957
8643.53,13.5132
8670.529,14.10857
8697.528,14.65157
8724.527,15.23545
8751.525,15.76812
8778.524,16.14499
8805.523,16.37215
8832.522,16.50599
8859.521,16.54923
8886.521,16.58089
8913.52,16.55634
8940.519,16.53868
8967.518,16.51335
8994.517,16.55321
9021.516,16.5863
9048.515,16.63169
9075.514,16.67155
9102.513,16.68453
9129.512,16.67751
9156.511,16.60979
9183.51,16.57714
9210.509,16.51924
9237.508,16.48275
9264.507,16.40695
9291.506,16.36463
9318.504,16.39998
9345.503,16.37205
9372.502,16.30443
9399.501,16.22715
9426.5,16.09327
9453.499,15.94873
9480.498,15.84159
9507.497,15.75835
9534.496,15.65656
9561.495,15.55286
9588.494,15.46765
9615.493,15.51552
9642.492,15.65866
9669.491,15.88493
9696.49,16.07892
9723.489,16.28301
9750.488,16.45119
9777.487,16.5377
9804.486,16.54088
9831.485,16.571
9858.484,16.74879
9885.482,16.94658
9912.481,17.14231
9939.48,17.26394
9966.479,17.40251
9993.479,17.49467
10020.48,17.57664
10047.48,17.67585
10074.48,17.71245
10101.47,17.75915
10128.47,17.82927
10155.47,17.83949
10182.47,17.83628
10209.47,17.86672
10236.47,17.8218
10263.47,17.86051
10290.47,17.83407
10317.47,17.73929
10344.47,17.77118
10371.46,17.73772
10398.46,17.6748
10425.46,17.64902
10452.46,17.56399
10479.46,17.43628
10506.46,17.30027
10533.46,17.02637
10560.46,16.76484
10587.46,16.3091
10614.46,15.84219
10641.45,15.12233
10668.45,14.50109
10695.45,13.9761
10722.45,13.83957
10749.45,13.96609
10776.45,14.24193
10803.45,14.77434
10830.45,15.22605
10857.45,15.66011
10884.45,16.20383
10911.44,16.59953
10938.44,17.02862
10965.44,17.32312
10992.44,17.59222
11019.44,17.76435
11046.44,17.90245
11073.44,17.99515
11100.44,18.08885
11127.44,18.06396
11154.43,18.22208
11181.43,18.34214
11208.43,18.48519
11235.43,18.6174
11262.43,18.73442
11289.43,18.77562
11316.43,18.87021
11343.43,19.01453
11370.43,18.99297
11397.43,18.9645
11424.42,19.14088
11451.42,19.19886
11478.42,19.17396
11505.42,19.17023
11532.42,19.34646
11559.42,19.38986
11586.42,19.34595
11613.42,19.31937
11640.42,19.52255
11667.42,19.55369
11694.41,19.52241
11721.41,19.449
11748.41,19.35803
11775.41,19.35509
11802.41,19.3531
11829.41,19.41762
11856.41,19.34189
11883.41,19.46301
11910.41,19.32105
11937.41,19.52714
11964.4,19.42341
11991.4,19.35177
11999.12,19.36376