Folder: nir_corr_po/Data/NIR (part 12)

File: S0040HDPE_3.csv
Wavenumber,Intensity
3999.706,4.367303
4026.705,4.359378
4053.704,4.371462
4080.703,4.381924
4107.702,4.388238
4134.701,4.399518
4161.7,4.413828
4188.699,4.43548
4215.698,4.487276
4242.697,4.514946
4269.696,4.544981
4296.694,4.570786
4323.693,4.53361
4350.692,4.560451
4377.691,4.621192
4404.69,4.856052
4431.689,5.15688
4458.688,5.430804
4485.688,5.668571
4512.687,5.961654
4539.686,6.234865
4566.685,6.54665
4593.683,6.726919
4620.682,6.828031
4647.681,6.891213
4674.68,6.820426
4701.679,6.983027
4728.678,6.874298
4755.677,6.829377
4782.676,6.653716
4809.675,6.565966
4836.674,6.399976
4863.673,6.195829
4890.672,6.254097
4917.671,6.303858
4944.67,6.279339
4971.669,6.092786
4998.668,6.293983
5025.667,6.40429
5052.666,6.424978
5079.665,6.383531
5106.664,6.366447
5133.663,6.435839
5160.662,6.359365
5187.661,6.359778
5214.66,6.372539
5241.659,6.428234
5268.658,6.471027
5295.657,6.439641
5322.656,6.523249
5349.655,6.392486
5376.654,6.216693
5403.652,6.052229
5430.651,5.840585
5457.65,5.779841
5484.649,5.655117
5511.648,5.683399
5538.647,5.685192
5565.646,5.713739
5592.646,5.901954
5619.645,5.691852
5646.644,5.383739
5673.643,5.08196
5700.642,5.516929
5727.641,5.355669
5754.639,4.968332
5781.638,4.78938
5808.637,5.002749
5835.636,5.360898
5862.635,6.344688
5889.634,7.661148
5916.633,8.36378
5943.632,8.92713
5970.631,9.696033
5997.63,10.51045
6024.629,11.14747
6051.628,11.60771
6078.627,11.89361
6105.626,11.79781
6132.625,12.18033
6159.624,12.44899
6186.623,12.6359
6213.622,12.7475
6240.621,12.84763
6267.62,12.88204
6294.619,12.91356
6321.618,12.92912
6348.617,12.82938
6375.616,12.6151
6402.615,12.48228
6429.614,12.23054
6456.613,11.85073
6483.612,10.76987
6510.61,11.33286
6537.609,11.60758
6564.608,11.7822
6591.607,11.9371
6618.606,11.9527
6645.605,11.89005
6672.604,11.75827
6699.604,11.54928
6726.603,11.27088
6753.602,11.03984
6780.601,10.7237
6807.6,10.19104
6834.599,9.644588
6861.598,9.414228
6888.597,9.111999
6915.596,8.855341
6942.594,8.368387
6969.593,8.283447
6996.592,8.194084
7023.591,7.957065
7050.59,7.924605
7077.589,8.113914
7104.588,8.628428
7131.587,9.036349
7158.586,8.173827
7185.585,7.852828
7212.584,9.406864
7239.583,10.64978
7266.582,11.76565
7293.581,12.79108
7320.58,13.67521
7347.579,14.27366
7374.578,14.54726
7401.577,14.70271
7428.576,14.8053
7455.575,14.89614
7482.574,14.93561
7509.573,14.90912
7536.572,14.88673
7563.571,14.8251
7590.57,14.74939
7617.569,14.63797
7644.568,14.47731
7671.566,14.34536
7698.565,14.27968
7725.564,14.18698
7752.563,14.1151
7779.563,14.00067
7806.562,13.93743
7833.561,13.82119
7860.56,13.66579
7887.559,13.43796
7914.558,13.18454
7941.557,12.87282
7968.556,12.49933
7995.555,12.07812
8022.554,11.57566
8049.553,11.01437
8076.552,10.38008
8103.551,9.685689
8130.55,8.886807
8157.548,8.049272
8184.547,7.223276
8211.546,6.741703
8238.545,6.756966
8265.544,6.948569
8292.543,7.454998
8319.542,8.069471
8346.541,8.740601
8373.54,9.583282
8400.539,10.10505
8427.538,10.06144
8454.537,10.77507
8481.536,11.4471
8508.535,11.97499
8535.534,12.16763
8562.533,11.46947
8589.532,12.39712
8616.531,13.74887
8643.53,14.6527
8670.529,15.22602
8697.528,15.73042
8724.527,16.25252
8751.525,16.78599
8778.524,17.17052
8805.523,17.40714
8832.522,17.52605
8859.521,17.59708
8886.521,17.63956
8913.52,17.62461
8940.519,17.58382
8967.518,17.62197
8994.517,17.6833
9021.516,17.74154
9048.515,17.82699
9075.514,17.83965
9102.513,17.90142
9129.512,17.88544
9156.511,17.873
9183.51,17.84129
9210.509,17.78572
9237.508,17.7595
9264.507,17.73814
9291.506,17.70192
9318.504,17.71879
9345.503,17.74728
9372.502,17.66263
9399.501,17.5875
9426.5,17.50031
9453.499,17.37055
9480.498,17.293
9507.497,17.20919
9534.496,17.15576
9561.495,17.0399
9588.494,16.97497
9615.493,17.02228
9642.492,17.20198
9669.491,17.4436
9696.49,17.61845
9723.489,17.83809
9750.488,18.03903
9777.487,18.13111
9804.486,18.124
9831.485,18.18025
9858.484,18.3757
9885.482,18.59076
9912.481,18.75152
9939.48,18.93042
9966.479,19.06707
9993.479,19.18492
10020.48,19.24948
10047.48,19.3461
10074.48,19.45416
10101.47,19.49696
10128.47,19.58295
10155.47,19.58311
10182.47,19.62833
10209.47,19.64031
10236.47,19.63695
10263.47,19.62272
10290.47,19.62545
10317.47,19.59004
10344.47,19.58824
10371.46,19.60976
10398.46,19.53802
10425.46,19.54688
10452.46,19.42302
10479.46,19.30917
10506.46,19.19213
10533.46,19.011
10560.46,18.63917
10587.46,18.26701
10614.46,17.74116
10641.45,17.13965
10668.45,16.51624
10695.45,16.02911
10722.45,15.9034
10749.45,15.99757
10776.45,16.32651
10803.45,16.73055
10830.45,17.20844
10857.45,17.71885
10884.45,18.26956
10911.44,18.67921
10938.44,19.14976
10965.44,19.48267
10992.44,19.76694
11019.44,19.87139
11046.44,20.05261
11073.44,20.24379
11100.44,20.22957
11127.44,20.29821
11154.43,20.33341
11181.43,20.42851
11208.43,20.6673
11235.43,20.91119
11262.43,21.00192
11289.43,21.1017
11316.43,21.15386
11343.43,21.26648
11370.43,21.20901
11397.43,21.39946
11424.42,21.31299
11451.42,21.48217
11478.42,21.62718
11505.42,21.63237
11532.42,21.7494
11559.42,21.80367
11586.42,21.9259
11613.42,21.81866
11640.42,21.82664
11667.42,21.81484
11694.41,21.97944
11721.41,21.98604
11748.41,21.9514
11775.41,22.04294
11802.41,21.80402
11829.41,21.9002
11856.41,21.99766
11883.41,22.14298
11910.41,22.27753
11937.41,22.20506
11964.4,22.5246
11991.4,22.43088
11999.12,22.54968

File: S0040HDPE_4.csv
Wavenumber,Intensity
3999.706,1.950652
4026.705,1.920469
4053.704,1.923172
4080.703,1.914536
4107.702,1.900506
4134.701,1.915204
4161.7,1.912664
4188.699,1.925931
4215.698,1.954979
4242.697,1.961094
4269.696,1.983989
4296.694,2.016897
4323.693,1.958363
4350.692,1.996597
4377.691,2.080359
4404.69,2.289852
4431.689,2.557723
4458.688,2.833156
4485.688,3.096328
4512.687,3.438465
4539.686,3.746385
4566.685,4.083713
4593.683,4.28002
4620.682,4.395028
4647.681,4.458885
4674.68,4.363977
4701.679,4.542589
4728.678,4.389629
4755.677,4.320881
4782.676,4.104743
4809.675,3.989622
4836.674,3.791592
4863.673,3.555976
4890.672,3.614886
4917.671,3.669709
4944.67,3.641174
4971.669,3.42789
4998.668,3.655402
5025.667,3.776285
5052.666,3.795088
5079.665,3.745819
5106.664,3.72007
5133.663,3.790373
5160.662,3.700098
5187.661,3.693483
5214.66,3.710321
5241.659,3.760698
5268.658,3.80759
5295.657,3.782708
5322.656,3.874634
5349.655,3.712226
5376.654,3.50973
5403.652,3.353071
5430.651,3.121224
5457.65,3.066672
5484.649,2.943739
5511.648,2.972702
5538.647,2.97364
5565.646,2.99902
5592.646,3.189414
5619.645,2.981908
5646.644,2.688528
5673.643,2.432225
5700.642,2.804737
5727.641,2.663863
5754.639,2.328182
5781.638,2.162407
5808.637,2.356136
5835.636,2.66836
5862.635,3.629441
5889.634,5.111957
5916.633,5.932897
5943.632,6.595012
5970.631,7.485576
5997.63,8.421091
6024.629,9.140746
6051.628,9.644501
6078.627,9.962481
6105.626,9.846354
6132.625,10.27285
6159.624,10.56361
6186.623,10.75608
6213.622,10.87099
6240.621,10.96103
6267.62,10.99688
6294.619,11.03164
6321.618,11.03763
6348.617,10.92487
6375.616,10.67404
6402.615,10.52169
6429.614,10.24025
6456.613,9.80317
6483.612,8.582397
6510.61,9.205626
6537.609,9.512371
6564.608,9.702412
6591.607,9.863375
6618.606,9.876942
6645.605,9.794877
6672.604,9.636069
6699.604,9.407746
6726.603,9.090922
6753.602,8.817838
6780.601,8.457267
6807.6,7.847925
6834.599,7.218765
6861.598,6.959939
6888.597,6.611712
6915.596,6.309389
6942.594,5.767383
6969.593,5.668125
6996.592,5.57074
7023.591,5.298577
7050.59,5.264448
7077.589,5.488047
7104.588,6.045966
7131.587,6.511594
7158.586,5.517525
7185.585,5.189992
7212.584,6.900935
7239.583,8.258395
7266.582,9.494782
7293.581,10.61104
7320.58,11.55683
7347.579,12.17579
7374.578,12.46471
7401.577,12.62206
7428.576,12.71437
7455.575,12.80692
7482.574,12.85147
7509.573,12.82481
7536.572,12.79289
7563.571,12.71142
7590.57,12.62873
7617.569,12.49898
7644.568,12.32318
7671.566,12.1858
7698.565,12.08869
7725.564,11.99485
7752.563,11.89565
7779.563,11.76716
7806.562,11.68197
7833.561,11.55626
7860.56,11.37835
7887.559,11.12947
7914.558,10.84628
7941.557,10.5142
7968.556,10.09429
7995.555,9.62746
8022.554,9.081033
8049.553,8.456435
8076.552,7.751905
8103.551,6.98894
8130.55,6.116497
8157.548,5.219802
8184.547,4.344898
8211.546,3.888175
8238.545,3.910091
8265.544,4.081109
8292.543,4.57844
8319.542,5.22171
8346.541,5.914102
8373.54,6.80855
8400.539,7.386629
8427.538,7.317139
8454.537,8.087327
8481.536,8.806449
8508.535,9.389501
8535.534,9.596938
8562.533,8.842607
8589.532,9.826632
8616.531,11.28031
8643.53,12.24026
8670.529,12.83396
8697.528,13.36816
8724.527,13.8902
8751.525,14.43206
8778.524,14.81797
8805.523,15.04172
8832.522,15.1747
8859.521,15.2335
8886.521,15.2727
8913.52,15.25389
8940.519,15.21188
8967.518,15.21441
8994.517,15.26847
9021.516,15.31413
9048.515,15.37797
9075.514,15.40456
9102.513,15.42422
9129.512,15.44126
9156.511,15.38221
9183.51,15.35843
9210.509,15.32007
9237.508,15.28909
9264.507,15.23162
9291.506,15.19781
9318.504,15.22765
9345.503,15.22267
9372.502,15.16641
9399.501,15.04805
9426.5,14.9532
9453.499,14.81755
9480.498,14.69444
9507.497,14.65906
9534.496,14.54627
9561.495,14.46248
9588.494,14.34393
9615.493,14.42057
9642.492,14.58331
9669.491,14.82568
9696.49,15.04355
9723.489,15.22239
9750.488,15.43041
9777.487,15.54157
9804.486,15.52425
9831.485,15.58229
9858.484,15.79785
9885.482,16.03648
9912.481,16.23349
9939.48,16.42215
9966.479,16.57806
9993.479,16.65219
10020.48,16.75762
10047.48,16.85812
10074.48,16.88973
10101.47,17.00416
10128.47,17.05017
10155.47,17.09908
10182.47,17.05891
10209.47,17.09428
10236.47,17.11559
10263.47,17.12081
10290.47,17.10434
10317.47,17.0838
10344.47,17.06282
10371.46,17.03789
10398.46,17.01623
10425.46,17.00055
10452.46,16.8317
10479.46,16.77319
10506.46,16.63741
10533.46,16.34597
10560.46,16.09074
10587.46,15.63272
10614.46,15.10694
10641.45,14.47532
10668.45,13.80329
10695.45,13.3362
10722.45,13.19866
10749.45,13.30104
10776.45,13.58343
10803.45,14.14155
10830.45,14.62101
10857.45,15.06383
10884.45,15.6206
10911.44,16.05555
10938.44,16.47166
10965.44,16.84868
10992.44,17.1902
11019.44,17.37623
11046.44,17.46654
11073.44,17.58455
11100.44,17.73706
11127.44,17.61994
11154.43,17.81318
11181.43,17.87997
11208.43,18.14717
11235.43,18.31121
11262.43,18.53052
11289.43,18.50519
11316.43,18.67411
11343.43,18.74721
11370.43,18.81436
11397.43,18.87824
11424.42,18.99783
11451.42,19.08466
11478.42,19.09394
11505.42,19.14215
11532.42,19.32925
11559.42,19.35398
11586.42,19.24444
11613.42,19.33868
11640.42,19.45298
11667.42,19.58307
11694.41,19.457
11721.41,19.39681
11748.41,19.47851
11775.41,19.34585
11802.41,19.29383
11829.41,19.44336
11856.41,19.31614
11883.41,19.32139
11910.41,19.33798
11937.41,19.21081
11964.4,19.24164
11991.4,19.19615
11999.12,19.0583

File: S0040HDPE_5.csv
Wavenumber,Intensity
3999.706,3.809461
4026.705,3.794626
4053.704,3.809106
4080.703,3.819865
4107.702,3.815154
4134.701,3.832387
4161.7,3.837217
4188.699,3.860293
4215.698,3.908345
4242.697,3.932535
4269.696,3.965722
4296.694,3.998971
4323.693,3.94593
4350.692,3.989875
4377.691,4.053061
4404.69,4.261011
4431.689,4.568756
4458.688,4.867871
4485.688,5.137614
4512.687,5.477185
4539.686,5.782954
4566.685,6.124237
4593.683,6.324882
4620.682,6.437051
4647.681,6.508636
4674.68,6.428999
4701.679,6.608565
4728.678,6.479481
4755.677,6.426463
4782.676,6.226323
4809.675,6.125976
4836.674,5.937788
4863.673,5.707459
4890.672,5.767645
4917.671,5.826571
4944.67,5.802344
4971.669,5.586369
4998.668,5.821688
5025.667,5.943797
5052.666,5.97131
5079.665,5.922362
5106.664,5.897524
5133.663,5.973569
5160.662,5.8903
5187.661,5.884456
5214.66,5.907572
5241.659,5.960811
5268.658,6.004987
5295.657,5.986283
5322.656,6.079844
5349.655,5.919795
5376.654,5.70198
5403.652,5.545553
5430.651,5.294462
5457.65,5.232835
5484.649,5.10429
5511.648,5.132791
5538.647,5.141954
5565.646,5.168271
5592.646,5.380357
5619.645,5.15011
5646.644,4.818491
5673.643,4.519739
5700.642,4.955632
5727.641,4.786394
5754.639,4.409541
5781.638,4.259048
5808.637,4.447725
5835.636,4.798021
5862.635,5.881683
5889.634,7.366457
5916.633,8.14171
5943.632,8.754379
5970.631,9.575793
5997.63,10.41383
6024.629,11.05787
6051.628,11.51534
6078.627,11.80776
6105.626,11.71533
6132.625,12.09844
6159.624,12.36756
6186.623,12.54132
6213.622,12.65233
6240.621,12.74427
6267.62,12.79073
6294.619,12.82578
6321.618,12.84644
6348.617,12.74794
6375.616,12.53282
6402.615,12.41527
6429.614,12.16529
6456.613,11.78811
6483.612,10.70064
6510.61,11.26885
6537.609,11.54866
6564.608,11.73148
6591.607,11.88679
6618.606,11.90691
6645.605,11.83874
6672.604,11.70762
6699.604,11.50418
6726.603,11.22492
6753.602,10.97989
6780.601,10.65878
6807.6,10.10482
6834.599,9.53075
6861.598,9.282375
6888.597,8.963713
6915.596,8.678271
6942.594,8.149755
6969.593,8.050217
6996.592,7.955896
7023.591,7.688717
7050.59,7.654697
7077.589,7.871435
7104.588,8.425197
7131.587,8.883236
7158.586,7.91243
7185.585,7.580539
7212.584,9.288008
7239.583,10.59093
7266.582,11.75933
7293.581,12.79087
7320.58,13.66192
7347.579,14.23713
7374.578,14.51771
7401.577,14.66809
7428.576,14.76769
7455.575,14.8615
7482.574,14.90892
7509.573,14.89787
7536.572,14.88405
7563.571,14.81552
7590.57,14.74809
7617.569,14.6387
7644.568,14.48686
7671.566,14.36204
7698.565,14.29015
7725.564,14.2094
7752.563,14.13463
7779.563,14.02469
7806.562,13.95722
7833.561,13.85663
7860.56,13.69874
7887.559,13.47129
7914.558,13.21502
7941.557,12.91118
7968.556,12.52733
7995.555,12.0966
8022.554,11.58667
8049.553,10.99407
8076.552,10.3238
8103.551,9.578243
8130.55,8.684117
8157.548,7.750828
8184.547,6.807044
8211.546,6.278602
8238.545,6.308547
8265.544,6.501582
8292.543,7.067714
8319.542,7.762778
8346.541,8.52536
8373.54,9.447079
8400.539,10.03037
8427.538,9.960657
8454.537,10.73303
8481.536,11.44841
8508.535,12.02181
8535.534,12.23319
8562.533,11.49494
8589.532,12.46785
8616.531,13.8658
8643.53,14.76842
8670.529,15.33819
8697.528,15.83478
8724.527,16.35469
8751.525,16.86264
8778.524,17.24957
8805.523,17.47696
8832.522,17.60775
8859.521,17.67414
8886.521,17.72209
8913.52,17.70551
8940.519,17.67417
8967.518,17.69798
8994.517,17.77065
9021.516,17.81615
9048.515,17.87391
9075.514,17.9389
9102.513,17.95522
9129.512,17.96962
9156.511,17.93775
9183.51,17.91845
9210.509,17.90521
9237.508,17.86605
9264.507,17.84055
9291.506,17.80812
9318.504,17.85931
9345.503,17.8603
9372.502,17.80747
9399.501,17.72884
9426.5,17.64521
9453.499,17.5154
9480.498,17.42866
9507.497,17.38647
9534.496,17.28323
9561.495,17.22347
9588.494,17.13926
9615.493,17.17947
9642.492,17.36642
9669.491,17.5989
9696.49,17.82598
9723.489,18.02428
9750.488,18.24988
9777.487,18.32729
9804.486,18.35388
9831.485,18.43737
9858.484,18.62876
9885.482,18.84916
9912.481,19.06339
9939.48,19.24465
9966.479,19.41059
9993.479,19.52891
10020.48,19.60421
10047.48,19.72004
10074.48,19.76419
10101.47,19.87345
10128.47,19.94692
10155.47,19.98447
10182.47,19.99877
10209.47,20.05223
10236.47,20.03381
10263.47,20.08244
10290.47,20.03987
10317.47,20.0507
10344.47,20.02832
10371.46,20.01194
10398.46,19.97654
10425.46,19.99559
10452.46,19.91505
10479.46,19.84187
10506.46,19.64904
10533.46,19.41959
10560.46,19.16476
10587.46,18.75753
10614.46,18.24514
10641.45,17.65065
10668.45,17.01383
10695.45,16.56233
10722.45,16.3836
10749.45,16.5153
10776.45,16.84591
10803.45,17.36785
10830.45,17.87136
10857.45,18.32842
10884.45,18.84881
10911.44,19.30624
10938.44,19.73893
10965.44,20.12618
10992.44,20.411
11019.44,20.566
11046.44,20.7051
11073.44,20.86776
11100.44,20.99223
11127.44,20.94089
11154.43,21.11525
11181.43,21.16664
11208.43,21.45904
11235.43,21.60588
11262.43,21.77038
11289.43,21.88109
11316.43,22.00978
11343.43,22.12152
11370.43,22.19625
11397.43,22.3222
11424.42,22.33891
11451.42,22.48188
11478.42,22.48073
11505.42,22.5574
11532.42,22.69396
11559.42,22.69336
11586.42,22.77571
11613.42,22.78758
11640.42,22.92556
11667.42,22.92306
11694.41,22.92504
11721.41,22.93374
11748.41,22.94912
11775.41,22.77681
11802.41,22.84404
11829.41,22.87481
11856.41,22.9736
11883.41,23.02457
11910.41,22.86178
11937.41,22.86373
11964.4,22.8524
11991.4,22.62843
11999.12,22.64882

File: S0040HDPE_6.csv
Wavenumber,Intensity
3999.706,4.617314
4026.705,4.61636
4053.704,4.636569
4080.703,4.648867
4107.702,4.648989
4134.701,4.661477
4161.7,4.666965
4188.699,4.701762
4215.698,4.757671
4242.697,4.787925
4269.696,4.821465
4296.694,4.853691
4323.693,4.818944
4350.692,4.848317
4377.691,4.906064
4404.69,5.081703
4431.689,5.342556
4458.688,5.607127
4485.688,5.849781
4512.687,6.164859
4539.686,6.463475
4566.685,6.809651
4593.683,7.015263
4620.682,7.135299
4647.681,7.214617
4674.68,7.135923
4701.679,7.326852
4728.678,7.209174
4755.677,7.159433
4782.676,6.966829
4809.675,6.871964
4836.674,6.69554
4863.673,6.476865
4890.672,6.542099
4917.671,6.602776
4944.67,6.581436
4971.669,6.378454
4998.668,6.609657
5025.667,6.735434
5052.666,6.764416
5079.665,6.722214
5106.664,6.706828
5133.663,6.7853
5160.662,6.706481
5187.661,6.70595
5214.66,6.729618
5241.659,6.787299
5268.658,6.846302
5295.657,6.821794
5322.656,6.922082
5349.655,6.765718
5376.654,6.560917
5403.652,6.401454
5430.651,6.160748
5457.65,6.105616
5484.649,5.976092
5511.648,6.011245
5538.647,6.018076
5565.646,6.05099
5592.646,6.266138
5619.645,6.039309
5646.644,5.71971
5673.643,5.429358
5700.642,5.857303
5727.641,5.691327
5754.639,5.323695
5781.638,5.178172
5808.637,5.360921
5835.636,5.710413
5862.635,6.796415
5889.634,8.354287
5916.633,9.190084
5943.632,9.864429
5970.631,10.77196
5997.63,11.71864
6024.629,12.45037
6051.628,12.97136
6078.627,13.30402
6105.626,13.20664
6132.625,13.64658
6159.624,13.95445
6186.623,14.16328
6213.622,14.29218
6240.621,14.39482
6267.62,14.45809
6294.619,14.50648
6321.618,14.53205
6348.617,14.41832
6375.616,14.18782
6402.615,14.05462
6429.614,13.77244
6456.613,13.34666
6483.612,12.11822
6510.61,12.76925
6537.609,13.0956
6564.608,13.2955
6591.607,13.47665
6618.606,13.50138
6645.605,13.436
6672.604,13.28849
6699.604,13.05655
6726.603,12.75058
6753.602,12.48494
6780.601,12.12094
6807.6,11.4982
6834.599,10.85869
6861.598,10.59278
6888.597,10.23447
6915.596,9.922424
6942.594,9.348088
6969.593,9.238208
6996.592,9.143157
7023.591,8.84652
7050.59,8.817089
7077.589,9.056428
7104.588,9.67015
7131.587,10.17937
7158.586,9.110103
7185.585,8.753855
7212.584,10.64009
7239.583,12.11458
7266.582,13.42229
7293.581,14.60072
7320.58,15.59353
7347.579,16.25983
7374.578,16.57138
7401.577,16.74677
7428.576,16.86841
7455.575,16.97179
7482.574,17.03144
7509.573,17.00919
7536.572,16.99838
7563.571,16.9248
7590.57,16.85676
7617.569,16.73517
7644.568,16.55317
7671.566,16.43129
7698.565,16.34434
7725.564,16.24693
7752.563,16.1635
7779.563,16.04709
7806.562,15.97053
7833.561,15.85151
7860.56,15.68456
7887.559,15.41245
7914.558,15.14089
7941.557,14.79011
7968.556,14.35292
7995.555,13.87539
8022.554,13.30273
8049.553,12.63454
8076.552,11.883
8103.551,11.04228
8130.55,10.06605
8157.548,9.032915
8184.547,7.994356
8211.546,7.411995
8238.545,7.45208
8265.544,7.671849
8292.543,8.305546
8319.542,9.078742
8346.541,9.898309
8373.54,10.93406
8400.539,11.59222
8427.538,11.51595
8454.537,12.37836
8481.536,13.18112
8508.535,13.83124
8535.534,14.05453
8562.533,13.23409
8589.532,14.34845
8616.531,15.91708
8643.53,16.94557
8670.529,17.59594
8697.528,18.15185
8724.527,18.74515
8751.525,19.33127
8778.524,19.75507
8805.523,20.01987
8832.522,20.18022
8859.521,20.24898
8886.521,20.31156
8913.52,20.28482
8940.519,20.26012
8967.518,20.28764
8994.517,20.35279
9021.516,20.42064
9048.515,20.49042
9075.514,20.55441
9102.513,20.59345
9129.512,20.59621
9156.511,20.56434
9183.51,20.54562
9210.509,20.52857
9237.508,20.50121
9264.507,20.46088
9291.506,20.41616
9318.504,20.48419
9345.503,20.48187
9372.502,20.42894
9399.501,20.32551
9426.5,20.24311
9453.499,20.09329
9480.498,19.99657
9507.497,19.9284
9534.496,19.84435
9561.495,19.75209
9588.494,19.67199
9615.493,19.74435
9642.492,19.92393
9669.491,20.22435
9696.49,20.43285
9723.489,20.65291
9750.488,20.89401
9777.487,21.02833
9804.486,21.06499
9831.485,21.11382
9858.484,21.35002
9885.482,21.60854
9912.481,21.83985
9939.48,22.03245
9966.479,22.23465
9993.479,22.35166
10020.48,22.48243
10047.48,22.5719
10074.48,22.67981
10101.47,22.77688
10128.47,22.85216
10155.47,22.87791
10182.47,22.91925
10209.47,22.93689
10236.47,22.95568
10263.47,23.02353
10290.47,22.95856
10317.47,22.93806
10344.47,22.95225
10371.46,22.90813
10398.46,22.9402
10425.46,22.91171
10452.46,22.77928
10479.46,22.73481
10506.46,22.56786
10533.46,22.30838
10560.46,21.96486
10587.46,21.5465
10614.46,20.95936
10641.45,20.27236
10668.45,19.58313
10695.45,19.06443
10722.45,18.86912
10749.45,18.99467
10776.45,19.33407
10803.45,19.94188
10830.45,20.51806
10857.45,21.02017
10884.45,21.60818
10911.44,22.09625
10938.44,22.63634
10965.44,23.02965
10992.44,23.37319
11019.44,23.59589
11046.44,23.722
11073.44,23.85487
11100.44,23.9491
11127.44,23.94868
11154.43,24.173
11181.43,24.36038
11208.43,24.61522
11235.43,24.7198
11262.43,24.97161
11289.43,25.01168
11316.43,25.2068
11343.43,25.2878
11370.43,25.38382
11397.43,25.46475
11424.42,25.57164
11451.42,25.66882
11478.42,25.7483
11505.42,25.78306
11532.42,26.04084
11559.42,25.97892
11586.42,25.98292
11613.42,26.14972
11640.42,26.18549
11667.42,26.43468
11694.41,26.20457
11721.41,26.23868
11748.41,26.26056
11775.41,26.18534
11802.41,26.20658
11829.41,26.27327
11856.41,26.22669
11883.41,26.39854
11910.41,26.2581
11937.41,26.21321
11964.4,26.27473
11991.4,26.13767
11999.12,26.07696