Folder: nir_corr_po/Data/NIR (part 8)

File: N1473LDPE_5.csv
Wavenumber,Intensity
3999.706,2.044662
4026.705,2.057136
4053.704,2.068636
4080.703,2.074915
4107.702,2.080268
4134.701,2.088057
4161.7,2.087918
4188.699,2.103755
4215.698,2.133374
4242.697,2.149338
4269.696,2.157648
4296.694,2.165821
4323.693,2.150613
4350.692,2.169337
4377.691,2.181378
4404.69,2.191098
4431.689,2.242872
4458.688,2.352764
4485.688,2.488928
4512.687,2.654731
4539.686,2.839071
4566.685,3.044776
4593.683,3.191659
4620.682,3.288998
4647.681,3.334673
4674.68,3.308557
4701.679,3.408904
4728.678,3.343835
4755.677,3.276603
4782.676,3.166498
4809.675,3.094752
4836.674,2.97438
4863.673,2.834985
4890.672,2.850258
4917.671,2.872441
4944.67,2.848857
4971.669,2.720699
4998.668,2.830312
5025.667,2.891738
5052.666,2.903403
5079.665,2.872649
5106.664,2.861433
5133.663,2.889944
5160.662,2.856475
5187.661,2.844972
5214.66,2.846258
5241.659,2.869752
5268.658,2.882004
5295.657,2.870574
5322.656,2.895846
5349.655,2.831085
5376.654,2.727373
5403.652,2.631633
5430.651,2.529557
5457.65,2.498127
5484.649,2.456174
5511.648,2.457859
5538.647,2.455949
5565.646,2.463137
5592.646,2.508707
5619.645,2.445268
5646.644,2.371221
5673.643,2.331051
5700.642,2.388861
5727.641,2.384689
5754.639,2.326974
5781.638,2.303392
5808.637,2.324649
5835.636,2.365526
5862.635,2.529639
5889.634,3.120617
5916.633,3.685373
5943.632,4.725878
5970.631,5.537072
5997.63,6.214694
6024.629,6.746509
6051.628,7.136539
6078.627,7.400622
6105.626,7.563541
6132.625,7.747731
6159.624,7.959933
6186.623,8.155443
6213.622,8.281424
6240.621,8.357571
6267.62,8.397266
6294.619,8.429379
6321.618,8.420335
6348.617,8.348548
6375.616,8.181177
6402.615,8.072239
6429.614,7.860872
6456.613,7.537218
6483.612,6.697842
6510.61,6.994488
6537.609,7.156689
6564.608,7.240859
6591.607,7.326897
6618.606,7.310106
6645.605,7.2198
6672.604,7.080385
6699.604,6.888881
6726.603,6.639627
6753.602,6.408732
6780.601,6.111195
6807.6,5.69171
6834.599,5.272111
6861.598,5.04668
6888.597,4.757363
6915.596,4.504889
6942.594,4.138782
6969.593,4.031356
6996.592,3.959862
7023.591,3.800076
7050.59,3.727281
7077.589,3.778798
7104.588,4.15743
7131.587,4.461783
7158.586,3.854354
7185.585,3.58416
7212.584,4.552384
7239.583,5.462235
7266.582,6.289207
7293.581,7.126523
7320.58,7.869156
7347.579,8.291086
7374.578,8.707655
7401.577,8.998835
7428.576,9.124875
7455.575,9.19533
7482.574,9.213678
7509.573,9.203163
7536.572,9.159164
7563.571,9.105422
7590.57,9.038985
7617.569,8.926562
7644.568,8.796619
7671.566,8.686289
7698.565,8.606241
7725.564,8.508258
7752.563,8.421133
7779.563,8.317577
7806.562,8.220466
7833.561,8.108157
7860.56,7.951851
7887.559,7.750386
7914.558,7.529561
7941.557,7.268109
7968.556,6.943535
7995.555,6.588429
8022.554,6.191014
8049.553,5.738538
8076.552,5.232422
8103.551,4.699923
8130.55,4.120959
8157.548,3.529708
8184.547,3.054222
8211.546,2.815032
8238.545,2.801574
8265.544,2.867022
8292.543,3.07171
8319.542,3.383374
8346.541,3.739354
8373.54,4.136662
8400.539,4.434153
8427.538,4.585623
8454.537,5.087708
8481.536,5.571494
8508.535,5.941511
8535.534,6.128878
8562.533,5.833097
8589.532,6.356218
8616.531,7.182589
8643.53,7.80784
8670.529,8.184097
8697.528,8.53053
8724.527,8.999356
8751.525,9.403192
8778.524,9.698153
8805.523,9.893514
8832.522,10.00253
8859.521,10.05878
8886.521,10.09083
8913.52,10.07563
8940.519,10.05978
8967.518,10.0734
8994.517,10.06075
9021.516,10.10695
9048.515,10.11456
9075.514,10.13672
9102.513,10.13104
9129.512,10.09129
9156.511,10.07604
9183.51,10.04944
9210.509,10.01793
9237.508,9.957294
9264.507,9.908906
9291.506,9.866204
9318.504,9.872148
9345.503,9.860829
9372.502,9.790474
9399.501,9.717453
9426.5,9.62556
9453.499,9.547108
9480.498,9.428087
9507.497,9.396704
9534.496,9.346637
9561.495,9.253643
9588.494,9.21577
9615.493,9.235302
9642.492,9.288621
9669.491,9.434559
9696.49,9.509962
9723.489,9.64976
9750.488,9.733487
9777.487,9.771892
9804.486,9.764619
9831.485,9.80083
9858.484,9.896798
9885.482,10.02574
9912.481,10.13271
9939.48,10.21088
9966.479,10.29143
9993.479,10.35613
10020.48,10.40187
10047.48,10.45865
10074.48,10.50374
10101.47,10.52604
10128.47,10.5621
10155.47,10.56118
10182.47,10.56031
10209.47,10.56275
10236.47,10.54555
10263.47,10.56423
10290.47,10.51336
10317.47,10.4725
10344.47,10.44704
10371.46,10.42304
10398.46,10.39203
10425.46,10.37521
10452.46,10.26112
10479.46,10.27175
10506.46,10.10696
10533.46,9.984569
10560.46,9.714339
10587.46,9.473271
10614.46,9.103729
10641.45,8.772716
10668.45,8.350298
10695.45,8.038615
10722.45,7.960281
10749.45,7.966229
10776.45,8.113999
10803.45,8.407637
10830.45,8.642837
10857.45,8.889214
10884.45,9.12316
10911.44,9.442134
10938.44,9.596485
10965.44,9.782724
10992.44,10.01887
11019.44,10.15619
11046.44,10.25316
11073.44,10.27596
11100.44,10.39789
11127.44,10.42077
11154.43,10.51061
11181.43,10.52857
11208.43,10.59975
11235.43,10.61363
11262.43,10.86331
11289.43,10.81242
11316.43,10.68368
11343.43,10.81298
11370.43,10.97315
11397.43,10.95776
11424.42,11.00899
11451.42,11.04974
11478.42,10.95326
11505.42,11.05236
11532.42,11.12444
11559.42,11.00616
11586.42,11.10077
11613.42,11.21296
11640.42,11.07815
11667.42,11.11195
11694.41,11.21908
11721.41,11.24111
11748.41,11.27813
11775.41,11.14302
11802.41,11.23061
11829.41,11.07428
11856.41,10.99825
11883.41,11.01882
11910.41,11.03762
11937.41,11.0112
11964.4,11.05688
11991.4,10.96479
11999.12,11.10543

File: N1473LDPE_6.csv
Wavenumber,Intensity
3999.706,2.287548
4026.705,2.296041
4053.704,2.30638
4080.703,2.317107
4107.702,2.31941
4134.701,2.328027
4161.7,2.325818
4188.699,2.345887
4215.698,2.375687
4242.697,2.391337
4269.696,2.405235
4296.694,2.414132
4323.693,2.401922
4350.692,2.416505
4377.691,2.427085
4404.69,2.437248
4431.689,2.499605
4458.688,2.589243
4485.688,2.686775
4512.687,2.794178
4539.686,2.913902
4566.685,3.051346
4593.683,3.152613
4620.682,3.215866
4647.681,3.2458
4674.68,3.233785
4701.679,3.306327
4728.678,3.271841
4755.677,3.235822
4782.676,3.174142
4809.675,3.129797
4836.674,3.056428
4863.673,2.967743
4890.672,2.981485
4917.671,2.998582
4944.67,2.980962
4971.669,2.898875
4998.668,2.970359
5025.667,3.015107
5052.666,3.024667
5079.665,3.009356
5106.664,3.000848
5133.663,3.022727
5160.662,3.004302
5187.661,2.997418
5214.66,2.998388
5241.659,3.020216
5268.658,3.02321
5295.657,3.016714
5322.656,3.031379
5349.655,2.988945
5376.654,2.914036
5403.652,2.854508
5430.651,2.765168
5457.65,2.747539
5484.649,2.71428
5511.648,2.714469
5538.647,2.711884
5565.646,2.719083
5592.646,2.759445
5619.645,2.702864
5646.644,2.632302
5673.643,2.584943
5700.642,2.646246
5727.641,2.642472
5754.639,2.574175
5781.638,2.543947
5808.637,2.569843
5835.636,2.617127
5862.635,2.778287
5889.634,3.213062
5916.633,3.5885
5943.632,4.267079
5970.631,4.803568
5997.63,5.248431
6024.629,5.607306
6051.628,5.865217
6078.627,6.046083
6105.626,6.163586
6132.625,6.293337
6159.624,6.440402
6186.623,6.580998
6213.622,6.664696
6240.621,6.726938
6267.62,6.755373
6294.619,6.784365
6321.618,6.785355
6348.617,6.742527
6375.616,6.627721
6402.615,6.557176
6429.614,6.419617
6456.613,6.202755
6483.612,5.638894
6510.61,5.846731
6537.609,5.959229
6564.608,6.015357
6591.607,6.076969
6618.606,6.072547
6645.605,6.014965
6672.604,5.924979
6699.604,5.796281
6726.603,5.630507
6753.602,5.479014
6780.601,5.28041
6807.6,5.002159
6834.599,4.717863
6861.598,4.563544
6888.597,4.374029
6915.596,4.205676
6942.594,3.959569
6969.593,3.886806
6996.592,3.834691
7023.591,3.727413
7050.59,3.672587
7077.589,3.712928
7104.588,3.968973
7131.587,4.184205
7158.586,3.770602
7185.585,3.572613
7212.584,4.252614
7239.583,4.894537
7266.582,5.465664
7293.581,6.045762
7320.58,6.571244
7347.579,6.862695
7374.578,7.172479
7401.577,7.381843
7428.576,7.462888
7455.575,7.526862
7482.574,7.542487
7509.573,7.533271
7536.572,7.518991
7563.571,7.48293
7590.57,7.433289
7617.569,7.35375
7644.568,7.281014
7671.566,7.197943
7698.565,7.146136
7725.564,7.085691
7752.563,7.025898
7779.563,6.956156
7806.562,6.891113
7833.561,6.81578
7860.56,6.703588
7887.559,6.568039
7914.558,6.419174
7941.557,6.232358
7968.556,6.002302
7995.555,5.760312
8022.554,5.487997
8049.553,5.164832
8076.552,4.82316
8103.551,4.433116
8130.55,4.019458
8157.548,3.598598
8184.547,3.235155
8211.546,3.042042
8238.545,3.0204
8265.544,3.085279
8292.543,3.252517
8319.542,3.494438
8346.541,3.755786
8373.54,4.049901
8400.539,4.265384
8427.538,4.384136
8454.537,4.742112
8481.536,5.093287
8508.535,5.355951
8535.534,5.501619
8562.533,5.28061
8589.532,5.658859
8616.531,6.262816
8643.53,6.724488
8670.529,6.9988
8697.528,7.242951
8724.527,7.597354
8751.525,7.877815
8778.524,8.110336
8805.523,8.260413
8832.522,8.334639
8859.521,8.381831
8886.521,8.413106
8913.52,8.402027
8940.519,8.401767
8967.518,8.403456
8994.517,8.413286
9021.516,8.437668
9048.515,8.449006
9075.514,8.464683
9102.513,8.466671
9129.512,8.450309
9156.511,8.436948
9183.51,8.415504
9210.509,8.390002
9237.508,8.361711
9264.507,8.329985
9291.506,8.294216
9318.504,8.315655
9345.503,8.309565
9372.502,8.252251
9399.501,8.221521
9426.5,8.146448
9453.499,8.077717
9480.498,8.016309
9507.497,7.983552
9534.496,7.955731
9561.495,7.886147
9588.494,7.874898
9615.493,7.859602
9642.492,7.925106
9669.491,8.023993
9696.49,8.099483
9723.489,8.197017
9750.488,8.263131
9777.487,8.317015
9804.486,8.300737
9831.485,8.342456
9858.484,8.406998
9885.482,8.50912
9912.481,8.586664
9939.48,8.646332
9966.479,8.741027
9993.479,8.763402
10020.48,8.845928
10047.48,8.862636
10074.48,8.872769
10101.47,8.921131
10128.47,8.95936
10155.47,8.958338
10182.47,8.964962
10209.47,8.966801
10236.47,8.963462
10263.47,8.934451
10290.47,8.952661
10317.47,8.894721
10344.47,8.880051
10371.46,8.921958
10398.46,8.867146
10425.46,8.882319
10452.46,8.780478
10479.46,8.779286
10506.46,8.638095
10533.46,8.564117
10560.46,8.399365
10587.46,8.21501
10614.46,7.90783
10641.45,7.681501
10668.45,7.38482
10695.45,7.117458
10722.45,7.120357
10749.45,7.082592
10776.45,7.189599
10803.45,7.411481
10830.45,7.614411
10857.45,7.848139
10884.45,7.981071
10911.44,8.224084
10938.44,8.345391
10965.44,8.517781
10992.44,8.648303
11019.44,8.745125
11046.44,8.842278
11073.44,8.891496
11100.44,8.94643
11127.44,9.080743
11154.43,8.962777
11181.43,9.052899
11208.43,9.218692
11235.43,9.175849
11262.43,9.271155
11289.43,9.329268
11316.43,9.250013
11343.43,9.34816
11370.43,9.438163
11397.43,9.368551
11424.42,9.467073
11451.42,9.479185
11478.42,9.446362
11505.42,9.590099
11532.42,9.618349
11559.42,9.489242
11586.42,9.568561
11613.42,9.601656
11640.42,9.549742
11667.42,9.531697
11694.41,9.642633
11721.41,9.81919
11748.41,9.579216
11775.41,9.590352
11802.41,9.535467
11829.41,9.655027
11856.41,9.636105
11883.41,9.573182
11910.41,9.669189
11937.41,9.601963
11964.4,9.63768
11991.4,9.527931
11999.12,9.589207

File: N1476LDPE_1.csv
Wavenumber,Intensity
3999.706,4.442991
4026.705,4.459304
4053.704,4.478086
4080.703,4.488682
4107.702,4.493978
4134.701,4.503483
4161.7,4.516904
4188.699,4.541965
4215.698,4.593067
4242.697,4.627297
4269.696,4.657258
4296.694,4.682231
4323.693,4.654127
4350.692,4.680914
4377.691,4.704684
4404.69,4.811026
4431.689,5.130167
4458.688,5.512567
4485.688,5.871408
4512.687,6.226973
4539.686,6.582166
4566.685,6.968623
4593.683,7.214478
4620.682,7.357727
4647.681,7.432429
4674.68,7.368931
4701.679,7.554413
4728.678,7.442412
4755.677,7.334174
4782.676,7.145406
4809.675,7.027995
4836.674,6.807838
4863.673,6.539577
4890.672,6.584258
4917.671,6.632074
4944.67,6.582666
4971.669,6.347503
4998.668,6.569241
5025.667,6.701217
5052.666,6.729451
5079.665,6.68131
5106.664,6.660768
5133.663,6.73177
5160.662,6.651763
5187.661,6.637688
5214.66,6.646544
5241.659,6.695642
5268.658,6.72605
5295.657,6.701876
5322.656,6.767306
5349.655,6.625327
5376.654,6.399578
5403.652,6.187591
5430.651,5.918077
5457.65,5.838904
5484.649,5.696964
5511.648,5.703841
5538.647,5.706033
5565.646,5.730652
5592.646,5.900177
5619.645,5.674569
5646.644,5.354897
5673.643,5.120139
5700.642,5.448647
5727.641,5.394755
5754.639,5.059321
5781.638,4.961406
5808.637,5.061929
5835.636,5.312178
5862.635,6.094786
5889.634,7.568088
5916.633,8.541205
5943.632,9.811423
5970.631,10.85495
5997.63,11.75033
6024.629,12.43815
6051.628,12.92351
6078.627,13.25659
6105.626,13.4814
6132.625,13.68916
6159.624,13.90366
6186.623,14.11335
6213.622,14.24573
6240.621,14.34453
6267.62,14.38221
6294.619,14.42112
6321.618,14.43776
6348.617,14.35852
6375.616,14.15688
6402.615,14.0257
6429.614,13.76927
6456.613,13.3706
6483.612,12.29026
6510.61,12.74504
6537.609,12.98703
6564.608,13.13822
6591.607,13.27543
6618.606,13.28769
6645.605,13.19749
6672.604,13.04437
6699.604,12.80785
6726.603,12.50574
6753.602,12.21814
6780.601,11.85656
6807.6,11.27973
6834.599,10.69146
6861.598,10.38806
6888.597,10.00237
6915.596,9.647315
6942.594,9.084303
6969.593,8.937647
6996.592,8.836278
7023.591,8.533974
7050.59,8.239886
7077.589,8.477556
7104.588,9.197966
7131.587,9.700109
7158.586,8.723735
7185.585,8.299269
7212.584,9.970157
7239.583,11.34491
7266.582,12.53289
7293.581,13.64585
7320.58,14.57972
7347.579,15.15962
7374.578,15.60549
7401.577,15.87839
7428.576,16.02649
7455.575,16.1197
7482.574,16.15604
7509.573,16.14686
7536.572,16.12491
7563.571,16.06547
7590.57,15.99827
7617.569,15.88449
7644.568,15.73352
7671.566,15.61318
7698.565,15.54114
7725.564,15.44039
7752.563,15.3536
7779.563,15.24214
7806.562,15.14371
7833.561,15.00694
7860.56,14.8391
7887.559,14.60442
7914.558,14.3294
7941.557,13.99749
7968.556,13.59154
7995.555,13.12069
8022.554,12.57367
8049.553,11.92232
8076.552,11.21028
8103.551,10.40683
8130.55,9.457838
8157.548,8.468868
8184.547,7.501554
8211.546,6.968733
8238.545,6.944778
8265.544,7.115427
8292.543,7.646028
8319.542,8.301317
8346.541,9.018551
8373.54,9.819398
8400.539,10.3464
8427.538,10.51268
8454.537,11.30098
8481.536,12.03926
8508.535,12.6121
8535.534,12.87456
8562.533,12.35211
8589.532,13.20056
8616.531,14.43222
8643.53,15.33941
8670.529,15.88951
8697.528,16.39113
8724.527,16.95171
8751.525,17.46068
8778.524,17.82146
8805.523,18.05161
8832.522,18.20389
8859.521,18.26479
8886.521,18.31824
8913.52,18.33431
8940.519,18.29516
8967.518,18.33265
8994.517,18.35888
9021.516,18.41258
9048.515,18.44486
9075.514,18.45479
9102.513,18.49239
9129.512,18.50368
9156.511,18.48113
9183.51,18.43011
9210.509,18.38875
9237.508,18.33857
9264.507,18.35422
9291.506,18.32141
9318.504,18.31352
9345.503,18.31126
9372.502,18.24848
9399.501,18.18328
9426.5,18.08794
9453.499,17.98191
9480.498,17.89859
9507.497,17.842
9534.496,17.76505
9561.495,17.67265
9588.494,17.61766
9615.493,17.64362
9642.492,17.79886
9669.491,17.98842
9696.49,18.12667
9723.489,18.32924
9750.488,18.47035
9777.487,18.52149
9804.486,18.563
9831.485,18.59968
9858.484,18.71154
9885.482,18.90881
9912.481,19.03773
9939.48,19.19679
9966.479,19.298
9993.479,19.35739
10020.48,19.4419
10047.48,19.523
10074.48,19.64138
10101.47,19.65272
10128.47,19.7056
10155.47,19.71735
10182.47,19.72244
10209.47,19.78285
10236.47,19.76445
10263.47,19.7472
10290.47,19.70033
10317.47,19.5947
10344.47,19.59072
10371.46,19.64505
10398.46,19.61324
10425.46,19.64273
10452.46,19.51715
10479.46,19.44001
10506.46,19.33966
10533.46,19.15116
10560.46,18.86353
10587.46,18.56811
10614.46,18.02719
10641.45,17.51155
10668.45,16.92083
10695.45,16.50077
10722.45,16.31837
10749.45,16.3826
10776.45,16.67958
10803.45,17.0519
10830.45,17.49673
10857.45,17.8514
10884.45,18.36125
10911.44,18.61665
10938.44,19.00156
10965.44,19.33178
10992.44,19.57771
11019.44,19.75477
11046.44,19.78996
11073.44,20.00067
11100.44,20.09391
11127.44,20.10399
11154.43,20.2434
11181.43,20.34384
11208.43,20.46721
11235.43,20.65327
11262.43,20.68497
11289.43,20.78374
11316.43,20.70389
11343.43,20.87381
11370.43,20.84885
11397.43,20.94506
11424.42,21.02907
11451.42,21.09998
11478.42,21.18653
11505.42,21.12378
11532.42,21.2084
11559.42,21.25682
11586.42,21.25746
11613.42,21.33585
11640.42,21.374
11667.42,21.26762
11694.41,21.4546
11721.41,21.30735
11748.41,21.28726
11775.41,21.26877
11802.41,21.2182
11829.41,21.12821
11856.41,21.13512
11883.41,21.27243
11910.41,21.32188
11937.41,21.22873
11964.4,21.16547
11991.4,21.36991
11999.12,21.35377

File: N1476LDPE_2.csv
Wavenumber,Intensity
3999.706,2.902091
4026.705,2.903874
4053.704,2.915837
4080.703,2.920362
4107.702,2.919604
4134.701,2.925496
4161.7,2.935637
4188.699,2.947884
4215.698,2.98313
4242.697,3.000408
4269.696,3.022894
4296.694,3.037298
4323.693,3.011802
4350.692,3.040454
4377.691,3.056978
4404.69,3.127917
4431.689,3.321917
4458.688,3.5829
4485.688,3.850887
4512.687,4.138814
4539.686,4.432116
4566.685,4.760663
4593.683,4.966496
4620.682,5.091346
4647.681,5.155593
4674.68,5.090909
4701.679,5.249549
4728.678,5.135808
4755.677,5.032273
4782.676,4.854007
4809.675,4.743094
4836.674,4.553798
4863.673,4.329915
4890.672,4.369388
4917.671,4.406685
4944.67,4.365808
4971.669,4.173891
4998.668,4.354947
5025.667,4.464211
5052.666,4.483901
5079.665,4.438997
5106.664,4.420689
5133.663,4.478413
5160.662,4.410547
5187.661,4.401225
5214.66,4.405186
5241.659,4.45265
5268.658,4.465805
5295.657,4.451146
5322.656,4.503998
5349.655,4.383515
5376.654,4.19705
5403.652,4.043798
5430.651,3.833572
5457.65,3.792559
5484.649,3.691377
5511.648,3.696788
5538.647,3.696369
5565.646,3.716341
5592.646,3.835057
5619.645,3.678054
5646.644,3.470683
5673.643,3.322778
5700.642,3.528634
5727.641,3.496668
5754.639,3.289005
5781.638,3.218991
5808.637,3.292101
5835.636,3.446339
5862.635,3.979357
5889.634,5.175957
5916.633,6.051188
5943.632,7.252316
5970.631,8.269972
5997.63,9.163003
6024.629,9.84864
6051.628,10.33947
6078.627,10.67026
6105.626,10.89612
6132.625,11.10314
6159.624,11.32201
6186.623,11.52339
6213.622,11.65444
6240.621,11.74409
6267.62,11.7852
6294.619,11.822
6321.618,11.82872
6348.617,11.74263
6375.616,11.53609
6402.615,11.39635
6429.614,11.13627
6456.613,10.72423
6483.612,9.64076
6510.61,10.09565
6537.609,10.33275
6564.608,10.4773
6591.607,10.61326
6618.606,10.61886
6645.605,10.52699
6672.604,10.37043
6699.604,10.12896
6726.603,9.826614
6753.602,9.542422
6780.601,9.182693
6807.6,8.622458
6834.599,8.042396
6861.598,7.758008
6888.597,7.386932
6915.596,7.043406
6942.594,6.537319
6969.593,6.402691
6996.592,6.299774
7023.591,6.042409
7050.59,5.778577
7077.589,5.996983
7104.588,6.648983
7131.587,7.122722
7158.586,6.229068
7185.585,5.832606
7212.584,7.357442
7239.583,8.658747
7266.582,9.78665
7293.581,10.85429
7320.58,11.78522
7347.579,12.33938
7374.578,12.78358
7401.577,13.05815
7428.576,13.19841
7455.575,13.27867
7482.574,13.31482
7509.573,13.30422
7536.572,13.26948
7563.571,13.20794
7590.57,13.12812
7617.569,13.02058
7644.568,12.86236
7671.566,12.73883
7698.565,12.65802
7725.564,12.55288
7752.563,12.46107
7779.563,12.34797
7806.562,12.24531
7833.561,12.10838
7860.56,11.94061
7887.559,11.70503
7914.558,11.4279
7941.557,11.10172
7968.556,10.69712
7995.555,10.24888
8022.554,9.715648
8049.553,9.10625
8076.552,8.432858
8103.551,7.674757
8130.55,6.818146
8157.548,5.952404
8184.547,5.151838
8211.546,4.716105
8238.545,4.693185
8265.544,4.834289
8292.543,5.252771
8319.542,5.80691
8346.541,6.422366
8373.54,7.131654
8400.539,7.605103
8427.538,7.739596
8454.537,8.471278
8481.536,9.147525
8508.535,9.680804
8535.534,9.921079
8562.533,9.42587
8589.532,10.22389
8616.531,11.39278
8643.53,12.23467
8670.529,12.76823
8697.528,13.24643
8724.527,13.77819
8751.525,14.263
8778.524,14.61102
8805.523,14.83665
8832.522,14.95902
8859.521,15.01758
8886.521,15.04847
8913.52,15.05735
8940.519,15.03821
8967.518,15.04126
8994.517,15.06323
9021.516,15.11451
9048.515,15.14964
9075.514,15.14765
9102.513,15.1903
9129.512,15.15224
9156.511,15.16529
9183.51,15.10126
9210.509,15.04956
9237.508,15.00294
9264.507,14.99316
9291.506,14.93368
9318.504,14.94122
9345.503,14.93538
9372.502,14.87689
9399.501,14.79711
9426.5,14.71208
9453.499,14.58632
9480.498,14.51531
9507.497,14.45354
9534.496,14.36955
9561.495,14.27854
9588.494,14.2182
9615.493,14.24262
9642.492,14.38687
9669.491,14.54539
9696.49,14.69567
9723.489,14.83601
9750.488,15.00195
9777.487,15.03628
9804.486,15.07098
9831.485,15.04761
9858.484,15.19162
9885.482,15.36423
9912.481,15.47569
9939.48,15.5877
9966.479,15.70691
9993.479,15.78698
10020.48,15.82012
10047.48,15.88854
10074.48,15.98263
10101.47,16.01677
10128.47,16.03724
10155.47,16.03215
10182.47,16.0626
10209.47,16.06431
10236.47,16.05802
10263.47,16.07529
10290.47,15.98242
10317.47,15.89862
10344.47,15.89515
10371.46,15.8928
10398.46,15.87498
10425.46,15.90846
10452.46,15.77552
10479.46,15.71575
10506.46,15.57932
10533.46,15.42167
10560.46,15.12856
10587.46,14.80639
10614.46,14.33275
10641.45,13.8487
10668.45,13.33657
10695.45,12.90469
10722.45,12.7393
10749.45,12.8021
10776.45,13.05874
10803.45,13.39958
10830.45,13.79351
10857.45,14.15808
10884.45,14.48776
10911.44,14.85304
10938.44,15.18013
10965.44,15.44816
10992.44,15.68197
11019.44,15.82478
11046.44,15.91771
11073.44,16.07449
11100.44,16.13973
11127.44,16.15537
11154.43,16.19228
11181.43,16.32241
11208.43,16.45814
11235.43,16.56085
11262.43,16.66681
11289.43,16.75684
11316.43,16.67793
11343.43,16.80401
11370.43,16.82148
11397.43,16.89001
11424.42,16.91261
11451.42,17.06808
11478.42,17.09319
11505.42,17.03432
11532.42,16.98152
11559.42,17.14865
11586.42,17.2203
11613.42,17.16193
11640.42,17.23411
11667.42,17.03629
11694.41,17.21816
11721.41,17.13813
11748.41,17.28551
11775.41,17.25261
11802.41,17.08355
11829.41,17.08694
11856.41,17.09999
11883.41,17.0122
11910.41,17.02699
11937.41,17.04556
11964.4,17.05703
11991.4,16.98115
11999.12,17.13083