Folder: nir_corr_po/Data/NIR (part 9)

File: N1476LDPE_3.csv
Wavenumber,Intensity
3999.706,3.693243
4026.705,3.70251
4053.704,3.717303
4080.703,3.720289
4107.702,3.724748
4134.701,3.731467
4161.7,3.738827
4188.699,3.759787
4215.698,3.804044
4242.697,3.825725
4269.696,3.849285
4296.694,3.87296
4323.693,3.837407
4350.692,3.872347
4377.691,3.895786
4404.69,3.959749
4431.689,4.170784
4458.688,4.476765
4485.688,4.792929
4512.687,5.128233
4539.686,5.471965
4566.685,5.840181
4593.683,6.07514
4620.682,6.217353
4647.681,6.287719
4674.68,6.219196
4701.679,6.392327
4728.678,6.270774
4755.677,6.158714
4782.676,5.964534
4809.675,5.845866
4836.674,5.627029
4863.673,5.372505
4890.672,5.409604
4917.671,5.455737
4944.67,5.406423
4971.669,5.186989
4998.668,5.396105
5025.667,5.521864
5052.666,5.546222
5079.665,5.496234
5106.664,5.474054
5133.663,5.543408
5160.662,5.466781
5187.661,5.45044
5214.66,5.45761
5241.659,5.510639
5268.658,5.530091
5295.657,5.509248
5322.656,5.573015
5349.655,5.433879
5376.654,5.224782
5403.652,5.034693
5430.651,4.794435
5457.65,4.732713
5484.649,4.613652
5511.648,4.619393
5538.647,4.621944
5565.646,4.633317
5592.646,4.779893
5619.645,4.593797
5646.644,4.348219
5673.643,4.193431
5700.642,4.421981
5727.641,4.383217
5754.639,4.157435
5781.638,4.087752
5808.637,4.159171
5835.636,4.321207
5862.635,4.951465
5889.634,6.335793
5916.633,7.300676
5943.632,8.584818
5970.631,9.646225
5997.63,10.56114
6024.629,11.25754
6051.628,11.75806
6078.627,12.0935
6105.626,12.32619
6132.625,12.53675
6159.624,12.75309
6186.623,12.95459
6213.622,13.09295
6240.621,13.18386
6267.62,13.22682
6294.619,13.26225
6321.618,13.27457
6348.617,13.19284
6375.616,12.98891
6402.615,12.84817
6429.614,12.58971
6456.613,12.17909
6483.612,11.08256
6510.61,11.54451
6537.609,11.78547
6564.608,11.93326
6591.607,12.07656
6618.606,12.07782
6645.605,11.98709
6672.604,11.83113
6699.604,11.58777
6726.603,11.27814
6753.602,10.98671
6780.601,10.61796
6807.6,10.03704
6834.599,9.444086
6861.598,9.134458
6888.597,8.737062
6915.596,8.382626
6942.594,7.826839
6969.593,7.679626
6996.592,7.571431
7023.591,7.284412
7050.59,6.992368
7077.589,7.230341
7104.588,7.943813
7131.587,8.450207
7158.586,7.489911
7185.585,7.047833
7212.584,8.707607
7239.583,10.09379
7266.582,11.26414
7293.581,12.37416
7320.58,13.31767
7347.579,13.88797
7374.578,14.33304
7401.577,14.60552
7428.576,14.74491
7455.575,14.83049
7482.574,14.87659
7509.573,14.86037
7536.572,14.83233
7563.571,14.77285
7590.57,14.69887
7617.569,14.58166
7644.568,14.43384
7671.566,14.29673
7698.565,14.23094
7725.564,14.12619
7752.563,14.03555
7779.563,13.9147
7806.562,13.82016
7833.561,13.68085
7860.56,13.51215
7887.559,13.27425
7914.558,13.00044
7941.557,12.66664
7968.556,12.25572
7995.555,11.78386
8022.554,11.22599
8049.553,10.60027
8076.552,9.883027
8103.551,9.071203
8130.55,8.142321
8157.548,7.168018
8184.547,6.275723
8211.546,5.763312
8238.545,5.731941
8265.544,5.903749
8292.543,6.38632
8319.542,7.016093
8346.541,7.697414
8373.54,8.467601
8400.539,9.006066
8427.538,9.143422
8454.537,9.940705
8481.536,10.65852
8508.535,11.22668
8535.534,11.47806
8562.533,10.95928
8589.532,11.78475
8616.531,13.01131
8643.53,13.89948
8670.529,14.44846
8697.528,14.92286
8724.527,15.47654
8751.525,15.97536
8778.524,16.32077
8805.523,16.55258
8832.522,16.69793
8859.521,16.75323
8886.521,16.78979
8913.52,16.78979
8940.519,16.77428
8967.518,16.7962
8994.517,16.82067
9021.516,16.84637
9048.515,16.91694
9075.514,16.90619
9102.513,16.95902
9129.512,16.93252
9156.511,16.91142
9183.51,16.8676
9210.509,16.8358
9237.508,16.78897
9264.507,16.77958
9291.506,16.7273
9318.504,16.71373
9345.503,16.73377
9372.502,16.65656
9399.501,16.60204
9426.5,16.48715
9453.499,16.39753
9480.498,16.29922
9507.497,16.26796
9534.496,16.18192
9561.495,16.0833
9588.494,16.03456
9615.493,16.05213
9642.492,16.18371
9669.491,16.37021
9696.49,16.5248
9723.489,16.6848
9750.488,16.80914
9777.487,16.8766
9804.486,16.92705
9831.485,16.94726
9858.484,17.05879
9885.482,17.25456
9912.481,17.33961
9939.48,17.48242
9966.479,17.60194
9993.479,17.67348
10020.48,17.69095
10047.48,17.81258
10074.48,17.89808
10101.47,17.9253
10128.47,17.97478
10155.47,17.96874
10182.47,17.9886
10209.47,18.00492
10236.47,17.97484
10263.47,17.97878
10290.47,17.92217
10317.47,17.85893
10344.47,17.80313
10371.46,17.89342
10398.46,17.85907
10425.46,17.86033
10452.46,17.74575
10479.46,17.63126
10506.46,17.56667
10533.46,17.39235
10560.46,17.07384
10587.46,16.76426
10614.46,16.30828
10641.45,15.80191
10668.45,15.22805
10695.45,14.78447
10722.45,14.63943
10749.45,14.6701
10776.45,14.99599
10803.45,15.34263
10830.45,15.72517
10857.45,16.11695
10884.45,16.55375
10911.44,16.85481
10938.44,17.17406
10965.44,17.53058
10992.44,17.72509
11019.44,17.87516
11046.44,18.02556
11073.44,18.15109
11100.44,18.22197
11127.44,18.26617
11154.43,18.36586
11181.43,18.4402
11208.43,18.67144
11235.43,18.74311
11262.43,18.82585
11289.43,18.78943
11316.43,18.97572
11343.43,19.01293
11370.43,18.9008
11397.43,19.11534
11424.42,19.06898
11451.42,19.17083
11478.42,19.29156
11505.42,19.16647
11532.42,19.26726
11559.42,19.41805
11586.42,19.35713
11613.42,19.47695
11640.42,19.35225
11667.42,19.27005
11694.41,19.4923
11721.41,19.32478
11748.41,19.46239
11775.41,19.3518
11802.41,19.34892
11829.41,19.2017
11856.41,19.24444
11883.41,19.21901
11910.41,19.26954
11937.41,19.35457
11964.4,19.29565
11991.4,19.27396
11999.12,19.35522

File: N1476LDPE_4.csv
Wavenumber,Intensity
3999.706,3.220595
4026.705,3.237974
4053.704,3.248366
4080.703,3.258269
4107.702,3.259267
4134.701,3.269744
4161.7,3.278828
4188.699,3.302976
4215.698,3.343599
4242.697,3.367454
4269.696,3.3825
4296.694,3.398481
4323.693,3.384315
4350.692,3.401849
4377.691,3.420912
4404.69,3.48609
4431.689,3.670663
4458.688,3.878552
4485.688,4.078997
4512.687,4.280042
4539.686,4.484615
4566.685,4.716522
4593.683,4.868585
4620.682,4.959653
4647.681,5.004047
4674.68,4.96918
4701.679,5.090944
4728.678,5.022049
4755.677,4.959072
4782.676,4.846665
4809.675,4.772718
4836.674,4.649177
4863.673,4.493634
4890.672,4.51667
4917.671,4.546631
4944.67,4.521322
4971.669,4.38098
4998.668,4.517104
5025.667,4.596802
5052.666,4.611979
5079.665,4.582654
5106.664,4.573783
5133.663,4.612253
5160.662,4.569215
5187.661,4.559468
5214.66,4.567802
5241.659,4.59807
5268.658,4.61339
5295.657,4.605168
5322.656,4.642733
5349.655,4.556318
5376.654,4.427399
5403.652,4.309683
5430.651,4.156108
5457.65,4.10943
5484.649,4.033207
5511.648,4.039018
5538.647,4.038193
5565.646,4.053448
5592.646,4.148377
5619.645,4.020681
5646.644,3.838648
5673.643,3.70373
5700.642,3.890185
5727.641,3.858062
5754.639,3.656307
5781.638,3.582927
5808.637,3.657307
5835.636,3.813588
5862.635,4.264801
5889.634,5.127116
5916.633,5.725153
5943.632,6.536864
5970.631,7.23618
5997.63,7.839248
6024.629,8.307324
6051.628,8.64262
6078.627,8.875813
6105.626,9.026713
6132.625,9.174383
6159.624,9.325193
6186.623,9.461547
6213.622,9.556523
6240.621,9.621247
6267.62,9.652331
6294.619,9.681366
6321.618,9.684558
6348.617,9.630862
6375.616,9.488523
6402.615,9.405372
6429.614,9.22963
6456.613,8.943047
6483.612,8.211447
6510.61,8.51539
6537.609,8.691937
6564.608,8.786101
6591.607,8.883581
6618.606,8.886973
6645.605,8.828505
6672.604,8.719774
6699.604,8.561736
6726.603,8.349075
6753.602,8.159908
6780.601,7.908153
6807.6,7.523407
6834.599,7.132346
6861.598,6.930761
6888.597,6.670854
6915.596,6.442575
6942.594,6.088716
6969.593,5.992304
6996.592,5.9193
7023.591,5.737004
7050.59,5.552007
7077.589,5.70083
7104.588,6.148835
7131.587,6.475932
7158.586,5.852905
7185.585,5.601487
7212.584,6.655825
7239.583,7.563584
7266.582,8.360503
7293.581,9.105551
7320.58,9.755929
7347.579,10.14652
7374.578,10.44257
7401.577,10.64143
7428.576,10.73323
7455.575,10.79786
7482.574,10.82593
7509.573,10.82255
7536.572,10.80416
7563.571,10.75939
7590.57,10.70935
7617.569,10.62656
7644.568,10.53356
7671.566,10.44674
7698.565,10.39503
7725.564,10.33335
7752.563,10.27443
7779.563,10.19872
7806.562,10.12574
7833.561,10.04464
7860.56,9.921774
7887.559,9.76058
7914.558,9.579381
7941.557,9.349641
7968.556,9.065797
7995.555,8.754262
8022.554,8.391473
8049.553,7.954741
8076.552,7.484852
8103.551,6.94766
8130.55,6.342213
8157.548,5.712435
8184.547,5.132674
8211.546,4.805095
8238.545,4.788113
8265.544,4.895366
8292.543,5.203052
8319.542,5.618806
8346.541,6.067755
8373.54,6.563832
8400.539,6.913719
8427.538,7.011704
8454.537,7.520005
8481.536,8.01526
8508.535,8.38908
8535.534,8.573049
8562.533,8.216084
8589.532,8.763555
8616.531,9.599653
8643.53,10.21104
8670.529,10.57588
8697.528,10.89257
8724.527,11.27484
8751.525,11.62502
8778.524,11.85827
8805.523,12.02938
8832.522,12.11367
8859.521,12.16097
8886.521,12.18612
8913.52,12.18348
8940.519,12.18838
8967.518,12.20086
8994.517,12.20489
9021.516,12.24726
9048.515,12.26909
9075.514,12.28955
9102.513,12.3128
9129.512,12.29939
9156.511,12.27379
9183.51,12.26171
9210.509,12.24329
9237.508,12.20549
9264.507,12.18912
9291.506,12.15285
9318.504,12.18159
9345.503,12.17034
9372.502,12.1156
9399.501,12.07531
9426.5,12.00543
9453.499,11.93773
9480.498,11.84993
9507.497,11.81253
9534.496,11.7848
9561.495,11.72052
9588.494,11.67442
9615.493,11.7034
9642.492,11.7617
9669.491,11.88838
9696.49,11.99863
9723.489,12.11878
9750.488,12.19386
9777.487,12.25322
9804.486,12.27155
9831.485,12.29169
9858.484,12.35083
9885.482,12.47351
9912.481,12.58767
9939.48,12.63485
9966.479,12.7114
9993.479,12.77598
10020.48,12.82335
10047.48,12.88034
10074.48,12.92384
10101.47,12.95626
10128.47,12.97958
10155.47,12.96771
10182.47,12.99998
10209.47,12.97799
10236.47,13.00896
10263.47,12.99254
10290.47,12.96286
10317.47,12.88471
10344.47,12.87333
10371.46,12.91627
10398.46,12.87107
10425.46,12.90287
10452.46,12.8049
10479.46,12.78795
10506.46,12.64364
10533.46,12.55777
10560.46,12.40748
10587.46,12.1011
10614.46,11.76635
10641.45,11.4751
10668.45,11.08949
10695.45,10.77231
10722.45,10.7145
10749.45,10.69637
10776.45,10.89219
10803.45,11.22363
10830.45,11.46533
10857.45,11.62436
10884.45,11.88916
10911.44,12.16513
10938.44,12.36824
10965.44,12.59358
10992.44,12.7548
11019.44,12.85836
11046.44,12.94833
11073.44,13.06373
11100.44,13.11609
11127.44,13.06997
11154.43,13.12532
11181.43,13.16529
11208.43,13.34618
11235.43,13.31126
11262.43,13.4805
11289.43,13.46777
11316.43,13.41707
11343.43,13.47695
11370.43,13.5707
11397.43,13.58806
11424.42,13.64753
11451.42,13.66339
11478.42,13.5742
11505.42,13.62907
11532.42,13.74733
11559.42,13.73007
11586.42,13.7376
11613.42,13.71773
11640.42,13.82862
11667.42,13.78319
11694.41,13.75629
11721.41,13.88557
11748.41,13.793
11775.41,13.73276
11802.41,13.72161
11829.41,13.74155
11856.41,13.54312
11883.41,13.67146
11910.41,13.70105
11937.41,13.87596
11964.4,13.86175
11991.4,13.61044
11999.12,13.81741

File: N1476LDPE_5.csv
Wavenumber,Intensity
3999.706,3.617566
4026.705,3.630804
4053.704,3.651222
4080.703,3.664219
4107.702,3.670515
4134.701,3.678905
4161.7,3.686085
4188.699,3.713311
4215.698,3.761682
4242.697,3.789647
4269.696,3.811203
4296.694,3.827886
4323.693,3.816397
4350.692,3.832319
4377.691,3.85493
4404.69,3.935354
4431.689,4.189884
4458.688,4.483966
4485.688,4.758617
4512.687,5.030504
4539.686,5.303292
4566.685,5.607903
4593.683,5.803586
4620.682,5.917862
4647.681,5.976195
4674.68,5.931972
4701.679,6.080732
4728.678,5.991999
4755.677,5.910865
4782.676,5.760227
4809.675,5.668767
4836.674,5.501655
4863.673,5.300069
4890.672,5.329928
4917.671,5.366723
4944.67,5.332966
4971.669,5.14734
4998.668,5.325777
5025.667,5.43087
5052.666,5.45157
5079.665,5.410318
5106.664,5.395212
5133.663,5.449256
5160.662,5.393305
5187.661,5.381042
5214.66,5.386677
5241.659,5.423555
5268.658,5.452308
5295.657,5.432772
5322.656,5.489895
5349.655,5.377993
5376.654,5.205159
5403.652,5.040367
5430.651,4.848842
5457.65,4.767938
5484.649,4.661214
5511.648,4.664238
5538.647,4.669309
5565.646,4.688943
5592.646,4.821898
5619.645,4.64357
5646.644,4.390427
5673.643,4.200403
5700.642,4.466199
5727.641,4.420074
5754.639,4.140663
5781.638,4.050445
5808.637,4.138642
5835.636,4.346751
5862.635,4.974821
5889.634,6.104532
5916.633,6.862179
5943.632,7.87862
5970.631,8.731817
5997.63,9.458684
6024.629,10.02062
6051.628,10.41861
6078.627,10.69391
6105.626,10.87793
6132.625,11.05421
6159.624,11.22451
6186.623,11.38558
6213.622,11.49262
6240.621,11.57074
6267.62,11.609
6294.619,11.63849
6321.618,11.64178
6348.617,11.57777
6375.616,11.4116
6402.615,11.30826
6429.614,11.09818
6456.613,10.76217
6483.612,9.8891
6510.61,10.25624
6537.609,10.45199
6564.608,10.57125
6591.607,10.68348
6618.606,10.69053
6645.605,10.61433
6672.604,10.48275
6699.604,10.29686
6726.603,10.04289
6753.602,9.81393
6780.601,9.511046
6807.6,9.050753
6834.599,8.571445
6861.598,8.32752
6888.597,8.012082
6915.596,7.732607
6942.594,7.290847
6969.593,7.173337
6996.592,7.079566
7023.591,6.855117
7050.59,6.622867
7077.589,6.805611
7104.588,7.353576
7131.587,7.755659
7158.586,6.97828
7185.585,6.665299
7212.584,7.967196
7239.583,9.047584
7266.582,10.01119
7293.581,10.90396
7320.58,11.65003
7347.579,12.11456
7374.578,12.4558
7401.577,12.68675
7428.576,12.7942
7455.575,12.86281
7482.574,12.89477
7509.573,12.88016
7536.572,12.86055
7563.571,12.81971
7590.57,12.75289
7617.569,12.65239
7644.568,12.5429
7671.566,12.43236
7698.565,12.37129
7725.564,12.28099
7752.563,12.21373
7779.563,12.12688
7806.562,12.03819
7833.561,11.94239
7860.56,11.79659
7887.559,11.60119
7914.558,11.38154
7941.557,11.12146
7968.556,10.77158
7995.555,10.40406
8022.554,9.968257
8049.553,9.456275
8076.552,8.888413
8103.551,8.241608
8130.55,7.50864
8157.548,6.739317
8184.547,6.006315
8211.546,5.588517
8238.545,5.574192
8265.544,5.716453
8292.543,6.102144
8319.542,6.609808
8346.541,7.150339
8373.54,7.743821
8400.539,8.177275
8427.538,8.293198
8454.537,8.913825
8481.536,9.485836
8508.535,9.920761
8535.534,10.13251
8562.533,9.7051
8589.532,10.36847
8616.531,11.3405
8643.53,12.05448
8670.529,12.47455
8697.528,12.83606
8724.527,13.2818
8751.525,13.67162
8778.524,13.95997
8805.523,14.15385
8832.522,14.24391
8859.521,14.30159
8886.521,14.31802
8913.52,14.32968
8940.519,14.32362
8967.518,14.33663
8994.517,14.33344
9021.516,14.38281
9048.515,14.39487
9075.514,14.42498
9102.513,14.43927
9129.512,14.43287
9156.511,14.39847
9183.51,14.37259
9210.509,14.34883
9237.508,14.3021
9264.507,14.27233
9291.506,14.22408
9318.504,14.26501
9345.503,14.24766
9372.502,14.20621
9399.501,14.13904
9426.5,14.0661
9453.499,13.97531
9480.498,13.8841
9507.497,13.83847
9534.496,13.78867
9561.495,13.72021
9588.494,13.67815
9615.493,13.71552
9642.492,13.78671
9669.491,13.94533
9696.49,14.02816
9723.489,14.18899
9750.488,14.26955
9777.487,14.33441
9804.486,14.34594
9831.485,14.35389
9858.484,14.4675
9885.482,14.61561
9912.481,14.68561
9939.48,14.76875
9966.479,14.85449
9993.479,14.93061
10020.48,14.97269
10047.48,15.05237
10074.48,15.1051
10101.47,15.13716
10128.47,15.15197
10155.47,15.15292
10182.47,15.15884
10209.47,15.17162
10236.47,15.17567
10263.47,15.17173
10290.47,15.08883
10317.47,15.03558
10344.47,15.02631
10371.46,15.05614
10398.46,15.02893
10425.46,15.05017
10452.46,14.9683
10479.46,14.93673
10506.46,14.80223
10533.46,14.70092
10560.46,14.46709
10587.46,14.19744
10614.46,13.79816
10641.45,13.40702
10668.45,12.97779
10695.45,12.54067
10722.45,12.52211
10749.45,12.52831
10776.45,12.73305
10803.45,13.09848
10830.45,13.36927
10857.45,13.64096
10884.45,13.91536
10911.44,14.23263
10938.44,14.44649
10965.44,14.70378
10992.44,14.91582
11019.44,15.06419
11046.44,15.15144
11073.44,15.20261
11100.44,15.26716
11127.44,15.25433
11154.43,15.38843
11181.43,15.45133
11208.43,15.52538
11235.43,15.53668
11262.43,15.69118
11289.43,15.71176
11316.43,15.70371
11343.43,15.79081
11370.43,15.8496
11397.43,15.80816
11424.42,15.88229
11451.42,16.04332
11478.42,15.83918
11505.42,16.01647
11532.42,16.13748
11559.42,16.03508
11586.42,16.0625
11613.42,16.22198
11640.42,16.07405
11667.42,16.13581
11694.41,16.05745
11721.41,16.26703
11748.41,16.06888
11775.41,16.11775
11802.41,16.06167
11829.41,16.11148
11856.41,15.97482
11883.41,16.06148
11910.41,15.97314
11937.41,16.09641
11964.4,16.00949
11991.4,15.96248
11999.12,16.15602

File: N1476LDPE_6.csv
Wavenumber,Intensity
3999.706,3.231632
4026.705,3.243819
4053.704,3.259802
4080.703,3.268202
4107.702,3.277311
4134.701,3.282877
4161.7,3.288688
4188.699,3.315741
4215.698,3.358197
4242.697,3.381721
4269.696,3.396255
4296.694,3.410678
4323.693,3.404373
4350.692,3.41624
4377.691,3.436245
4404.69,3.49015
4431.689,3.65747
4458.688,3.874599
4485.688,4.099936
4512.687,4.331285
4539.686,4.570109
4566.685,4.840686
4593.683,5.021193
4620.682,5.125461
4647.681,5.177618
4674.68,5.132468
4701.679,5.267871
4728.678,5.187593
4755.677,5.11036
4782.676,4.974137
4809.675,4.889081
4836.674,4.736684
4863.673,4.557626
4890.672,4.583349
4917.671,4.618414
4944.67,4.585928
4971.669,4.425382
4998.668,4.581641
5025.667,4.674279
5052.666,4.69053
5079.665,4.653371
5106.664,4.63851
5133.663,4.687317
5160.662,4.636167
5187.661,4.626866
5214.66,4.632441
5241.659,4.669357
5268.658,4.687879
5295.657,4.671005
5322.656,4.717547
5349.655,4.621881
5376.654,4.470123
5403.652,4.330667
5430.651,4.159761
5457.65,4.107648
5484.649,4.027174
5511.648,4.027776
5538.647,4.028349
5565.646,4.040136
5592.646,4.145839
5619.645,4.007667
5646.644,3.819916
5673.643,3.691961
5700.642,3.874187
5727.641,3.84177
5754.639,3.656502
5781.638,3.594805
5808.637,3.655637
5835.636,3.793004
5862.635,4.26897
5889.634,5.275626
5916.633,5.983448
5943.632,6.939995
5970.631,7.747952
5997.63,8.439592
6024.629,8.974333
6051.628,9.360674
6078.627,9.620552
6105.626,9.792309
6132.625,9.958058
6159.624,10.12481
6186.623,10.27381
6213.622,10.38071
6240.621,10.45129
6267.62,10.484
6294.619,10.5176
6321.618,10.51968
6348.617,10.45375
6375.616,10.30074
6402.615,10.19638
6429.614,9.997709
6456.613,9.67655
6483.612,8.844133
6510.61,9.19301
6537.609,9.382277
6564.608,9.496811
6591.607,9.600068
6618.606,9.606108
6645.605,9.533731
6672.604,9.410658
6699.604,9.231836
6726.603,8.993908
6753.602,8.772254
6780.601,8.487356
6807.6,8.046492
6834.599,7.592378
6861.598,7.361404
6888.597,7.058754
6915.596,6.786562
6942.594,6.371734
6969.593,6.26741
6996.592,6.17895
7023.591,5.964443
7050.59,5.743315
7077.589,5.918869
7104.588,6.447074
7131.587,6.818192
7158.586,6.095963
7185.585,5.786144
7212.584,7.016057
7239.583,8.070818
7266.582,8.979385
7293.581,9.815042
7320.58,10.53822
7347.579,10.9701
7374.578,11.29341
7401.577,11.50522
7428.576,11.60424
7455.575,11.67242
7482.574,11.70607
7509.573,11.68937
7536.572,11.67107
7563.571,11.62703
7590.57,11.5693
7617.569,11.47534
7644.568,11.36973
7671.566,11.27875
7698.565,11.21497
7725.564,11.14035
7752.563,11.06181
7779.563,10.98763
7806.562,10.91201
7833.561,10.80746
7860.56,10.67275
7887.559,10.48719
7914.558,10.28889
7941.557,10.03803
7968.556,9.711325
7995.555,9.363556
8022.554,8.94138
8049.553,8.454428
8076.552,7.9181
8103.551,7.312181
8130.55,6.614355
8157.548,5.882995
8184.547,5.196481
8211.546,4.823123
8238.545,4.812955
8265.544,4.936108
8292.543,5.28499
8319.542,5.764664
8346.541,6.274742
8373.54,6.849841
8400.539,7.250375
8427.538,7.362482
8454.537,7.950007
8481.536,8.508932
8508.535,8.922341
8535.534,9.114254
8562.533,8.729742
8589.532,9.346705
8616.531,10.27744
8643.53,10.93823
8670.529,11.34106
8697.528,11.68833
8724.527,12.08781
8751.525,12.46987
8778.524,12.73436
8805.523,12.90322
8832.522,12.99004
8859.521,13.03615
8886.521,13.08126
8913.52,13.05155
8940.519,13.06741
8967.518,13.07262
8994.517,13.07671
9021.516,13.11316
9048.515,13.13497
9075.514,13.1614
9102.513,13.18225
9129.512,13.14826
9156.511,13.14627
9183.51,13.11594
9210.509,13.10435
9237.508,13.0472
9264.507,13.03004
9291.506,12.98096
9318.504,13.0114
9345.503,13.00349
9372.502,12.94892
9399.501,12.89077
9426.5,12.81227
9453.499,12.75554
9480.498,12.65715
9507.497,12.64443
9534.496,12.56958
9561.495,12.49143
9588.494,12.44922
9615.493,12.50173
9642.492,12.55287
9669.491,12.70213
9696.49,12.80606
9723.489,12.94554
9750.488,13.0097
9777.487,13.07132
9804.486,13.05727
9831.485,13.11479
9858.484,13.17908
9885.482,13.30325
9912.481,13.4249
9939.48,13.47575
9966.479,13.54339
9993.479,13.59926
10020.48,13.62901
10047.48,13.69022
10074.48,13.76402
10101.47,13.78989
10128.47,13.80424
10155.47,13.82939
10182.47,13.82028
10209.47,13.78653
10236.47,13.79411
10263.47,13.83329
10290.47,13.74905
10317.47,13.67629
10344.47,13.69087
10371.46,13.73407
10398.46,13.68793
10425.46,13.69555
10452.46,13.59701
10479.46,13.56373
10506.46,13.48
10533.46,13.33432
10560.46,13.14936
10587.46,12.86147
10614.46,12.50983
10641.45,12.1581
10668.45,11.73721
10695.45,11.39343
10722.45,11.31804
10749.45,11.33289
10776.45,11.57833
10803.45,11.85159
10830.45,12.10294
10857.45,12.34951
10884.45,12.6294
10911.44,12.9204
10938.44,13.11322
10965.44,13.34748
10992.44,13.47815
11019.44,13.59043
11046.44,13.7568
11073.44,13.70846
11100.44,13.8244
11127.44,13.82846
11154.43,13.93748
11181.43,13.99602
11208.43,14.0706
11235.43,14.1067
11262.43,14.22037
11289.43,14.23159
11316.43,14.20945
11343.43,14.30372
11370.43,14.34502
11397.43,14.3314
11424.42,14.36972
11451.42,14.43449
11478.42,14.34315
11505.42,14.37812
11532.42,14.52276
11559.42,14.44633
11586.42,14.46273
11613.42,14.54724
11640.42,14.50126
11667.42,14.45078
11694.41,14.52974
11721.41,14.68391
11748.41,14.57717
11775.41,14.58445
11802.41,14.4669
11829.41,14.41609
11856.41,14.32888
11883.41,14.52053
11910.41,14.38751
11937.41,14.44138
11964.4,14.49942
11991.4,14.2679
11999.12,14.37512