Folder: nir_corr_po/Data/NIR (part 15)

File: S0081LDPE_3.csv
Wavenumber,Intensity
3999.706,3.22948
4026.705,3.24366
4053.704,3.255411
4080.703,3.263728
4107.702,3.266304
4134.701,3.271564
4161.7,3.282438
4188.699,3.299266
4215.698,3.337681
4242.697,3.355575
4269.696,3.380617
4296.694,3.394935
4323.693,3.36485
4350.692,3.399979
4377.691,3.412003
4404.69,3.46535
4431.689,3.633941
4458.688,3.86547
4485.688,4.077256
4512.687,4.30614
4539.686,4.536239
4566.685,4.794022
4593.683,4.961718
4620.682,5.065117
4647.681,5.124139
4674.68,5.091961
4701.679,5.208035
4728.678,5.139162
4755.677,5.075368
4782.676,4.952494
4809.675,4.873067
4836.674,4.730555
4863.673,4.562086
4890.672,4.586849
4917.671,4.618864
4944.67,4.591181
4971.669,4.429073
4998.668,4.567467
5025.667,4.649695
5052.666,4.664148
5079.665,4.638549
5106.664,4.622801
5133.663,4.665299
5160.662,4.61725
5187.661,4.608768
5214.66,4.612459
5241.659,4.643112
5268.658,4.658065
5295.657,4.646091
5322.656,4.682592
5349.655,4.594999
5376.654,4.453971
5403.652,4.323679
5430.651,4.163936
5457.65,4.113007
5484.649,4.031876
5511.648,4.034698
5538.647,4.033823
5565.646,4.049044
5592.646,4.142306
5619.645,4.007505
5646.644,3.829317
5673.643,3.704609
5700.642,3.881536
5727.641,3.863921
5754.639,3.6707
5781.638,3.607538
5808.637,3.670863
5835.636,3.803345
5862.635,4.201889
5889.634,5.063376
5916.633,5.718353
5943.632,6.75876
5970.631,7.561687
5997.63,8.238015
6024.629,8.76029
6051.628,9.137874
6078.627,9.394476
6105.626,9.539018
6132.625,9.723358
6159.624,9.938177
6186.623,10.12521
6213.622,10.23948
6240.621,10.31789
6267.62,10.35384
6294.619,10.38313
6321.618,10.39179
6348.617,10.32538
6375.616,10.17054
6402.615,10.05923
6429.614,9.859066
6456.613,9.55808
6483.612,8.736414
6510.61,9.050868
6537.609,9.210699
6564.608,9.300089
6591.607,9.388838
6618.606,9.379165
6645.605,9.304034
6672.604,9.179617
6699.604,8.989607
6726.603,8.752528
6753.602,8.529408
6780.601,8.245264
6807.6,7.82657
6834.599,7.401248
6861.598,7.169315
6888.597,6.883381
6915.596,6.624053
6942.594,6.244751
6969.593,6.126018
6996.592,6.051578
7023.591,5.870899
7050.59,5.792256
7077.589,5.871645
7104.588,6.293497
7131.587,6.616815
7158.586,5.958579
7185.585,5.654683
7212.584,6.756668
7239.583,7.711133
7266.582,8.567836
7293.581,9.397168
7320.58,10.12536
7347.579,10.54586
7374.578,10.93763
7401.577,11.21341
7428.576,11.34674
7455.575,11.41052
7482.574,11.4409
7509.573,11.42693
7536.572,11.40334
7563.571,11.35464
7590.57,11.28841
7617.569,11.19553
7644.568,11.07051
7671.566,10.96142
7698.565,10.89339
7725.564,10.8162
7752.563,10.72426
7779.563,10.62673
7806.562,10.53947
7833.561,10.43047
7860.56,10.28539
7887.559,10.10714
7914.558,9.883729
7941.557,9.622819
7968.556,9.312257
7995.555,8.956739
8022.554,8.54515
8049.553,8.07855
8076.552,7.572635
8103.551,7.010673
8130.55,6.355891
8157.548,5.707861
8184.547,5.09674
8211.546,4.766726
8238.545,4.737432
8265.544,4.846173
8292.543,5.154992
8319.542,5.545687
8346.541,5.999971
8373.54,6.482903
8400.539,6.823184
8427.538,6.96431
8454.537,7.515181
8481.536,8.028994
8508.535,8.42488
8535.534,8.626702
8562.533,8.302591
8589.532,8.894486
8616.531,9.737881
8643.53,10.39041
8670.529,10.78693
8697.528,11.16348
8724.527,11.60948
8751.525,12.00479
8778.524,12.3221
8805.523,12.50475
8832.522,12.61178
8859.521,12.66942
8886.521,12.69839
8913.52,12.70317
8940.519,12.68353
8967.518,12.6953
8994.517,12.69814
9021.516,12.73784
9048.515,12.76261
9075.514,12.78085
9102.513,12.8051
9129.512,12.7685
9156.511,12.75771
9183.51,12.71966
9210.509,12.69024
9237.508,12.64855
9264.507,12.62009
9291.506,12.60845
9318.504,12.58576
9345.503,12.574
9372.502,12.51911
9399.501,12.45469
9426.5,12.38197
9453.499,12.31317
9480.498,12.25857
9507.497,12.20086
9534.496,12.13564
9561.495,12.0702
9588.494,12.00668
9615.493,12.03323
9642.492,12.13331
9669.491,12.25272
9696.49,12.38045
9723.489,12.46631
9750.488,12.6306
9777.487,12.64394
9804.486,12.69434
9831.485,12.70496
9858.484,12.82221
9885.482,12.96284
9912.481,13.06034
9939.48,13.21098
9966.479,13.2669
9993.479,13.36307
10020.48,13.3752
10047.48,13.43063
10074.48,13.52185
10101.47,13.5594
10128.47,13.56568
10155.47,13.58437
10182.47,13.61283
10209.47,13.59933
10236.47,13.61117
10263.47,13.60422
10290.47,13.58219
10317.47,13.55637
10344.47,13.54635
10371.46,13.4906
10398.46,13.47778
10425.46,13.50088
10452.46,13.37926
10479.46,13.35682
10506.46,13.25168
10533.46,13.08044
10560.46,12.86414
10587.46,12.6208
10614.46,12.2742
10641.45,11.90881
10668.45,11.46887
10695.45,11.18277
10722.45,11.02663
10749.45,11.11831
10776.45,11.25748
10803.45,11.50775
10830.45,11.80487
10857.45,12.10091
10884.45,12.4496
10911.44,12.69616
10938.44,12.91271
10965.44,13.12475
10992.44,13.28414
11019.44,13.47691
11046.44,13.58406
11073.44,13.65082
11100.44,13.75627
11127.44,13.7824
11154.43,13.82892
11181.43,13.8985
11208.43,14.06221
11235.43,14.10391
11262.43,14.20525
11289.43,14.23522
11316.43,14.25559
11343.43,14.37554
11370.43,14.36495
11397.43,14.50212
11424.42,14.47241
11451.42,14.57432
11478.42,14.71971
11505.42,14.52214
11532.42,14.60216
11559.42,14.78842
11586.42,14.75071
11613.42,14.69189
11640.42,14.86693
11667.42,14.6935
11694.41,14.80749
11721.41,14.65716
11748.41,14.79743
11775.41,14.76584
11802.41,14.64734
11829.41,14.64882
11856.41,14.59406
11883.41,14.60631
11910.41,14.72203
11937.41,14.71578
11964.4,14.65011
11991.4,14.65341
11999.12,14.68164

File: S0081LDPE_4.csv
Wavenumber,Intensity
3999.706,2.942806
4026.705,2.955625
4053.704,2.965137
4080.703,2.978857
4107.702,2.98229
4134.701,2.99396
4161.7,2.997508
4188.699,3.019169
4215.698,3.053664
4242.697,3.071459
4269.696,3.092209
4296.694,3.108281
4323.693,3.091774
4350.692,3.111335
4377.691,3.123316
4404.69,3.157175
4431.689,3.268405
4458.688,3.429183
4485.688,3.601523
4512.687,3.783644
4539.686,3.985661
4566.685,4.20925
4593.683,4.366154
4620.682,4.45387
4647.681,4.509451
4674.68,4.478095
4701.679,4.587678
4728.678,4.524009
4755.677,4.468944
4782.676,4.356007
4809.675,4.286654
4836.674,4.164484
4863.673,4.017889
4890.672,4.04095
4917.671,4.064538
4944.67,4.047869
4971.669,3.907606
4998.668,4.03052
5025.667,4.096613
5052.666,4.110659
5079.665,4.089239
5106.664,4.074884
5133.663,4.11179
5160.662,4.069976
5187.661,4.062138
5214.66,4.068781
5241.659,4.094922
5268.658,4.107975
5295.657,4.099508
5322.656,4.136822
5349.655,4.057495
5376.654,3.942672
5403.652,3.836595
5430.651,3.706111
5457.65,3.664964
5484.649,3.609167
5511.648,3.610917
5538.647,3.608344
5565.646,3.62408
5592.646,3.694642
5619.645,3.602134
5646.644,3.466394
5673.643,3.386275
5700.642,3.502147
5727.641,3.494374
5754.639,3.359587
5781.638,3.320256
5808.637,3.357536
5835.636,3.456747
5862.635,3.752905
5889.634,4.472396
5916.633,5.080253
5943.632,6.083375
5970.631,6.886951
5997.63,7.573609
6024.629,8.112515
6051.628,8.50319
6078.627,8.77435
6105.626,8.924592
6132.625,9.122353
6159.624,9.347002
6186.623,9.536749
6213.622,9.660948
6240.621,9.742061
6267.62,9.789045
6294.619,9.828285
6321.618,9.831938
6348.617,9.761571
6375.616,9.58876
6402.615,9.483469
6429.614,9.267111
6456.613,8.951183
6483.612,8.090756
6510.61,8.414711
6537.609,8.586123
6564.608,8.684162
6591.607,8.771721
6618.606,8.76825
6645.605,8.686738
6672.604,8.547484
6699.604,8.348831
6726.603,8.110791
6753.602,7.875954
6780.601,7.592013
6807.6,7.156394
6834.599,6.725211
6861.598,6.499701
6888.597,6.21218
6915.596,5.95146
6942.594,5.579863
6969.593,5.46729
6996.592,5.398592
7023.591,5.234203
7050.59,5.153645
7077.589,5.229794
7104.588,5.629876
7131.587,5.950265
7158.586,5.304082
7185.585,5.030063
7212.584,6.085135
7239.583,7.038374
7266.582,7.919011
7293.581,8.774544
7320.58,9.537846
7347.579,9.981203
7374.578,10.40799
7401.577,10.69533
7428.576,10.82583
7455.575,10.89812
7482.574,10.93941
7509.573,10.92437
7536.572,10.89835
7563.571,10.83063
7590.57,10.76766
7617.569,10.66956
7644.568,10.53144
7671.566,10.41799
7698.565,10.33479
7725.564,10.24065
7752.563,10.15765
7779.563,10.04513
7806.562,9.963361
7833.561,9.846425
7860.56,9.694517
7887.559,9.50156
7914.558,9.269872
7941.557,8.996344
7968.556,8.658908
7995.555,8.29776
8022.554,7.870576
8049.553,7.40423
8076.552,6.884133
8103.551,6.315111
8130.55,5.680109
8157.548,5.06854
8184.547,4.510667
8211.546,4.233024
8238.545,4.216565
8265.544,4.294105
8292.543,4.567281
8319.542,4.924994
8346.541,5.34737
8373.54,5.80511
8400.539,6.142892
8427.538,6.27801
8454.537,6.811522
8481.536,7.329741
8508.535,7.745565
8535.534,7.945159
8562.533,7.617866
8589.532,8.215528
8616.531,9.089704
8643.53,9.782391
8670.529,10.19846
8697.528,10.57662
8724.527,11.05182
8751.525,11.49657
8778.524,11.80745
8805.523,12.00954
8832.522,12.13741
8859.521,12.19809
8886.521,12.23036
8913.52,12.22693
8940.519,12.21979
8967.518,12.22341
8994.517,12.22993
9021.516,12.26045
9048.515,12.28862
9075.514,12.31059
9102.513,12.31568
9129.512,12.31042
9156.511,12.26597
9183.51,12.24202
9210.509,12.19938
9237.508,12.14937
9264.507,12.11646
9291.506,12.06268
9318.504,12.11643
9345.503,12.05437
9372.502,12.02396
9399.501,11.94366
9426.5,11.87648
9453.499,11.77535
9480.498,11.67786
9507.497,11.63939
9534.496,11.5661
9561.495,11.50604
9588.494,11.42949
9615.493,11.46149
9642.492,11.57476
9669.491,11.70527
9696.49,11.82456
9723.489,11.95258
9750.488,12.07303
9777.487,12.13685
9804.486,12.13369
9831.485,12.15806
9858.484,12.29778
9885.482,12.43621
9912.481,12.5749
9939.48,12.68875
9966.479,12.78943
9993.479,12.84974
10020.48,12.90507
10047.48,12.96644
10074.48,13.01881
10101.47,13.07449
10128.47,13.10281
10155.47,13.11482
10182.47,13.10035
10209.47,13.14457
10236.47,13.13018
10263.47,13.14606
10290.47,13.13602
10317.47,13.07585
10344.47,13.08479
10371.46,13.02313
10398.46,12.99664
10425.46,12.94432
10452.46,12.90558
10479.46,12.84587
10506.46,12.68304
10533.46,12.53246
10560.46,12.33464
10587.46,12.04516
10614.46,11.64671
10641.45,11.22706
10668.45,10.84427
10695.45,10.44673
10722.45,10.38317
10749.45,10.42902
10776.45,10.56846
10803.45,10.93879
10830.45,11.19509
10857.45,11.46467
10884.45,11.79906
10911.44,12.0722
10938.44,12.3589
10965.44,12.60192
10992.44,12.79353
11019.44,12.86622
11046.44,13.02827
11073.44,13.09494
11100.44,13.14723
11127.44,13.12095
11154.43,13.3724
11181.43,13.3545
11208.43,13.50342
11235.43,13.6204
11262.43,13.70615
11289.43,13.68375
11316.43,13.71474
11343.43,13.86166
11370.43,13.76597
11397.43,13.89782
11424.42,13.93931
11451.42,14.0448
11478.42,13.98704
11505.42,13.96255
11532.42,14.20226
11559.42,14.11276
11586.42,14.10045
11613.42,14.09512
11640.42,14.28729
11667.42,14.19152
11694.41,14.18499
11721.41,14.16261
11748.41,14.16772
11775.41,14.21252
11802.41,14.08621
11829.41,14.15818
11856.41,14.10112
11883.41,14.15282
11910.41,13.85108
11937.41,13.95647
11964.4,14.03016
11991.4,13.85411
11999.12,13.80696

File: S0081LDPE_5.csv
Wavenumber,Intensity
3999.706,2.383012
4026.705,2.388231
4053.704,2.401205
4080.703,2.406718
4107.702,2.412489
4134.701,2.419821
4161.7,2.421009
4188.699,2.43923
4215.698,2.469178
4242.697,2.481577
4269.696,2.499259
4296.694,2.518163
4323.693,2.492248
4350.692,2.519056
4377.691,2.532983
4404.69,2.57274
4431.689,2.722857
4458.688,2.967002
4485.688,3.220983
4512.687,3.499639
4539.686,3.782005
4566.685,4.093804
4593.683,4.306614
4620.682,4.43358
4647.681,4.501894
4674.68,4.451375
4701.679,4.595377
4728.678,4.490375
4755.677,4.410153
4782.676,4.243494
4809.675,4.13915
4836.674,3.951805
4863.673,3.739623
4890.672,3.765591
4917.671,3.803729
4944.67,3.771967
4971.669,3.567157
4998.668,3.744768
5025.667,3.839144
5052.666,3.859728
5079.665,3.82193
5106.664,3.796175
5133.663,3.847977
5160.662,3.78684
5187.661,3.769879
5214.66,3.779247
5241.659,3.814842
5268.658,3.826479
5295.657,3.814597
5322.656,3.86507
5349.655,3.749816
5376.654,3.573157
5403.652,3.422064
5430.651,3.230368
5457.65,3.178112
5484.649,3.091687
5511.648,3.094037
5538.647,3.09008
5565.646,3.110344
5592.646,3.212787
5619.645,3.074425
5646.644,2.893994
5673.643,2.777821
5700.642,2.940003
5727.641,2.92373
5754.639,2.750118
5781.638,2.697451
5808.637,2.749977
5835.636,2.869902
5862.635,3.281278
5889.634,4.304263
5916.633,5.132849
5943.632,6.450264
5970.631,7.453302
5997.63,8.286558
6024.629,8.916319
6051.628,9.362362
6078.627,9.671417
6105.626,9.842226
6132.625,10.06016
6159.624,10.31274
6186.623,10.521
6213.622,10.65377
6240.621,10.74535
6267.62,10.79122
6294.619,10.82433
6321.618,10.82738
6348.617,10.74699
6375.616,10.55434
6402.615,10.43198
6429.614,10.18543
6456.613,9.827236
6483.612,8.838916
6510.61,9.206213
6537.609,9.409128
6564.608,9.519163
6591.607,9.619552
6618.606,9.608241
6645.605,9.50724
6672.604,9.347012
6699.604,9.119659
6726.603,8.842801
6753.602,8.562926
6780.601,8.223072
6807.6,7.702528
6834.599,7.171277
6861.598,6.896194
6888.597,6.534688
6915.596,6.207829
6942.594,5.733159
6969.593,5.587729
6996.592,5.49453
7023.591,5.278272
7050.59,5.177939
7077.589,5.271582
7104.588,5.793484
7131.587,6.201522
7158.586,5.373537
7185.585,5.00275
7212.584,6.360301
7239.583,7.530355
7266.582,8.566497
7293.581,9.549927
7320.58,10.39403
7347.579,10.88085
7374.578,11.3443
7401.577,11.65553
7428.576,11.79173
7455.575,11.86389
7482.574,11.90142
7509.573,11.87896
7536.572,11.85587
7563.571,11.78582
7590.57,11.70968
7617.569,11.59345
7644.568,11.4489
7671.566,11.32955
7698.565,11.23128
7725.564,11.14
7752.563,11.03263
7779.563,10.91776
7806.562,10.81275
7833.561,10.68497
7860.56,10.5178
7887.559,10.3067
7914.558,10.04102
7941.557,9.731369
7968.556,9.351006
7995.555,8.932592
8022.554,8.44413
8049.553,7.889312
8076.552,7.262012
8103.551,6.568932
8130.55,5.782255
8157.548,4.990491
8184.547,4.254581
8211.546,3.876511
8238.545,3.836453
8265.544,3.967867
8292.543,4.311498
8319.542,4.785185
8346.541,5.32233
8373.54,5.908431
8400.539,6.338271
8427.538,6.49503
8454.537,7.149632
8481.536,7.761538
8508.535,8.256104
8535.534,8.487086
8562.533,8.103136
8589.532,8.773543
8616.531,9.790722
8643.53,10.54268
8670.529,11.00036
8697.528,11.41796
8724.527,11.92823
8751.525,12.37725
8778.524,12.70235
8805.523,12.92017
8832.522,13.05415
8859.521,13.10644
8886.521,13.13812
8913.52,13.13356
8940.519,13.11124
8967.518,13.11259
8994.517,13.13508
9021.516,13.15161
9048.515,13.18732
9075.514,13.19997
9102.513,13.1963
9129.512,13.19057
9156.511,13.12825
9183.51,13.11999
9210.509,13.0676
9237.508,13.02078
9264.507,12.97286
9291.506,12.9317
9318.504,12.9474
9345.503,12.92062
9372.502,12.86212
9399.501,12.79244
9426.5,12.72578
9453.499,12.59855
9480.498,12.50307
9507.497,12.45061
9534.496,12.35428
9561.495,12.31162
9588.494,12.26287
9615.493,12.29065
9642.492,12.37112
9669.491,12.50892
9696.49,12.67921
9723.489,12.75675
9750.488,12.88883
9777.487,12.98747
9804.486,12.95356
9831.485,12.99858
9858.484,13.14599
9885.482,13.25615
9912.481,13.39914
9939.48,13.52886
9966.479,13.63088
9993.479,13.69538
10020.48,13.74154
10047.48,13.79536
10074.48,13.8513
10101.47,13.8863
10128.47,13.95334
10155.47,13.96259
10182.47,13.95846
10209.47,13.99433
10236.47,13.94785
10263.47,13.97722
10290.47,13.94211
10317.47,13.88167
10344.47,13.90725
10371.46,13.885
10398.46,13.80537
10425.46,13.77511
10452.46,13.70922
10479.46,13.64469
10506.46,13.52237
10533.46,13.3372
10560.46,13.12978
10587.46,12.8276
10614.46,12.45819
10641.45,11.97534
10668.45,11.51779
10695.45,11.16246
10722.45,11.0728
10749.45,11.09634
10776.45,11.23156
10803.45,11.62655
10830.45,11.93313
10857.45,12.21327
10884.45,12.56103
10911.44,12.77152
10938.44,13.12752
10965.44,13.3896
10992.44,13.5629
11019.44,13.70591
11046.44,13.83287
11073.44,13.89023
11100.44,14.00395
11127.44,13.96444
11154.43,14.12389
11181.43,14.1935
11208.43,14.35757
11235.43,14.34714
11262.43,14.53794
11289.43,14.50121
11316.43,14.57332
11343.43,14.68894
11370.43,14.72847
11397.43,14.72038
11424.42,14.84597
11451.42,14.79854
11478.42,14.88718
11505.42,14.90304
11532.42,14.99276
11559.42,15.07671
11586.42,14.97146
11613.42,14.95753
11640.42,15.07261
11667.42,15.1474
11694.41,15.03626
11721.41,14.96965
11748.41,15.12264
11775.41,15.01451
11802.41,14.97439
11829.41,14.98896
11856.41,14.98118
11883.41,14.954
11910.41,14.6697
11937.41,14.72692
11964.4,14.71193
11991.4,14.38686
11999.12,14.63612

File: S0081LDPE_6.csv
Wavenumber,Intensity
3999.706,2.793289
4026.705,2.803587
4053.704,2.821225
4080.703,2.828142
4107.702,2.832629
4134.701,2.83968
4161.7,2.84585
4188.699,2.868166
4215.698,2.905205
4242.697,2.920589
4269.696,2.938692
4296.694,2.954788
4323.693,2.934378
4350.692,2.960512
4377.691,2.970354
4404.69,2.994402
4431.689,3.075347
4458.688,3.210234
4485.688,3.363288
4512.687,3.541044
4539.686,3.740868
4566.685,3.968683
4593.683,4.123029
4620.682,4.217942
4647.681,4.275394
4674.68,4.241998
4701.679,4.356664
4728.678,4.285193
4755.677,4.226261
4782.676,4.114174
4809.675,4.041032
4836.674,3.913224
4863.673,3.7675
4890.672,3.788235
4917.671,3.817897
4944.67,3.800511
4971.669,3.663672
4998.668,3.78309
5025.667,3.84612
5052.666,3.862564
5079.665,3.841964
5106.664,3.825809
5133.663,3.864188
5160.662,3.824367
5187.661,3.815383
5214.66,3.821439
5241.659,3.849098
5268.658,3.860007
5295.657,3.855488
5322.656,3.8852
5349.655,3.811574
5376.654,3.694278
5403.652,3.598831
5430.651,3.480471
5457.65,3.444183
5484.649,3.393807
5511.648,3.39577
5538.647,3.393274
5565.646,3.402921
5592.646,3.469972
5619.645,3.387068
5646.644,3.281534
5673.643,3.217388
5700.642,3.306938
5727.641,3.304409
5754.639,3.199595
5781.638,3.165373
5808.637,3.201828
5835.636,3.276549
5862.635,3.527601
5889.634,4.225741
5916.633,4.833827
5943.632,5.85803
5970.631,6.653613
5997.63,7.337119
6024.629,7.858544
6051.628,8.239739
6078.627,8.496218
6105.626,8.642243
6132.625,8.828744
6159.624,9.040578
6186.623,9.222082
6213.622,9.336905
6240.621,9.417508
6267.62,9.459672
6294.619,9.49064
6321.618,9.497048
6348.617,9.426392
6375.616,9.260444
6402.615,9.16127
6429.614,8.952256
6456.613,8.650326
6483.612,7.81454
6510.61,8.129658
6537.609,8.290787
6564.608,8.391069
6591.607,8.472447
6618.606,8.463626
6645.605,8.383453
6672.604,8.246139
6699.604,8.057094
6726.603,7.825741
6753.602,7.594239
6780.601,7.315483
6807.6,6.890355
6834.599,6.469356
6861.598,6.240995
6888.597,5.963246
6915.596,5.691332
6942.594,5.329029
6969.593,5.216169
6996.592,5.144104
7023.591,4.978384
7050.59,4.896522
7077.589,4.971963
7104.588,5.371546
7131.587,5.687064
7158.586,5.048956
7185.585,4.773962
7212.584,5.815193
7239.583,6.762583
7266.582,7.606376
7293.581,8.432002
7320.58,9.151628
7347.579,9.567712
7374.578,9.964588
7401.577,10.23289
7428.576,10.35142
7455.575,10.42701
7482.574,10.44782
7509.573,10.44146
7536.572,10.40661
7563.571,10.35396
7590.57,10.28778
7617.569,10.19188
7644.568,10.06281
7671.566,9.965697
7698.565,9.877541
7725.564,9.795465
7752.563,9.710616
7779.563,9.602346
7806.562,9.522545
7833.561,9.416718
7860.56,9.275554
7887.559,9.091946
7914.558,8.859524
7941.557,8.603399
7968.556,8.286896
7995.555,7.936701
8022.554,7.536934
8049.553,7.086669
8076.552,6.582672
8103.551,6.024969
8130.55,5.401531
8157.548,4.794503
8184.547,4.255648
8211.546,3.988732
8238.545,3.970246
8265.544,4.046438
8292.543,4.309767
8319.542,4.659021
8346.541,5.054824
8373.54,5.518332
8400.539,5.851586
8427.538,5.971412
8454.537,6.493167
8481.536,6.987937
8508.535,7.396284
8535.534,7.584605
8562.533,7.271309
8589.532,7.83986
8616.531,8.656829
8643.53,9.320843
8670.529,9.710773
8697.528,10.0584
8724.527,10.48668
8751.525,10.89331
8778.524,11.18862
8805.523,11.37394
8832.522,11.49454
8859.521,11.52431
8886.521,11.56647
8913.52,11.56393
8940.519,11.54803
8967.518,11.54339
8994.517,11.56933
9021.516,11.58144
9048.515,11.61221
9075.514,11.62856
9102.513,11.61936
9129.512,11.62308
9156.511,11.57885
9183.51,11.56989
9210.509,11.51465
9237.508,11.48338
9264.507,11.43097
9291.506,11.39719
9318.504,11.42757
9345.503,11.38934
9372.502,11.34875
9399.501,11.275
9426.5,11.20118
9453.499,11.11667
9480.498,11.04581
9507.497,10.99304
9534.496,10.93087
9561.495,10.84946
9588.494,10.80081
9615.493,10.82112
9642.492,10.92121
9669.491,11.04965
9696.49,11.16027
9723.489,11.271
9750.488,11.38523
9777.487,11.45035
9804.486,11.4365
9831.485,11.44973
9858.484,11.59292
9885.482,11.69966
9912.481,11.818
9939.48,11.96848
9966.479,12.0211
9993.479,12.068
10020.48,12.11164
10047.48,12.18455
10074.48,12.22173
10101.47,12.27544
10128.47,12.29477
10155.47,12.31244
10182.47,12.30469
10209.47,12.33766
10236.47,12.32282
10263.47,12.33087
10290.47,12.31547
10317.47,12.27363
10344.47,12.24776
10371.46,12.2113
10398.46,12.20907
10425.46,12.1652
10452.46,12.12345
10479.46,12.05516
10506.46,11.92875
10533.46,11.75586
10560.46,11.6137
10587.46,11.33665
10614.46,10.98386
10641.45,10.60869
10668.45,10.18355
10695.45,9.89048
10722.45,9.797946
10749.45,9.826583
10776.45,9.96954
10803.45,10.28475
10830.45,10.55386
10857.45,10.81497
10884.45,11.02466
10911.44,11.32937
10938.44,11.593
10965.44,11.77999
10992.44,11.98488
11019.44,12.07409
11046.44,12.15103
11073.44,12.22541
11100.44,12.30768
11127.44,12.32576
11154.43,12.48939
11181.43,12.51143
11208.43,12.68624
11235.43,12.64378
11262.43,12.80546
11289.43,12.72625
11316.43,12.89482
11343.43,12.96989
11370.43,12.95905
11397.43,12.95144
11424.42,13.05066
11451.42,13.03397
11478.42,13.04905
11505.42,13.03539
11532.42,13.18174
11559.42,13.22674
11586.42,13.22996
11613.42,13.18726
11640.42,13.2511
11667.42,13.25714
11694.41,13.16614
11721.41,13.19294
11748.41,13.24828
11775.41,13.19582
11802.41,13.16041
11829.41,13.10193
11856.41,13.1141
11883.41,13.20462
11910.41,12.9514
11937.41,12.92337
11964.4,12.79921
11991.4,12.85396
11999.12,12.65745