Folder: nir_corr_po/Data/NIR (part 13)

File: S0048HDPE_1.csv
Wavenumber,Intensity
3999.706,3.978348
4026.705,3.932379
4053.704,3.943816
4080.703,3.930391
4107.702,3.914897
4134.701,3.926601
4161.7,3.94029
4188.699,3.956657
4215.698,4.013876
4242.697,4.042304
4269.696,4.10094
4296.694,4.168602
4323.693,4.044492
4350.692,4.129462
4377.691,4.281854
4404.69,4.553522
4431.689,4.853657
4458.688,5.148064
4485.688,5.429276
4512.687,5.77161
4539.686,6.096006
4566.685,6.464432
4593.683,6.662422
4620.682,6.76666
4647.681,6.821589
4674.68,6.692267
4701.679,6.904991
4728.678,6.740888
4755.677,6.643955
4782.676,6.387872
4809.675,6.248595
4836.674,6.021311
4863.673,5.756044
4890.672,5.80829
4917.671,5.859308
4944.67,5.815216
4971.669,5.588399
4998.668,5.804865
5025.667,5.921893
5052.666,5.930162
5079.665,5.873555
5106.664,5.843767
5133.663,5.905793
5160.662,5.796538
5187.661,5.782083
5214.66,5.790903
5241.659,5.835743
5268.658,5.865774
5295.657,5.829003
5322.656,5.91421
5349.655,5.755075
5376.654,5.547531
5403.652,5.387554
5430.651,5.159601
5457.65,5.108943
5484.649,4.989289
5511.648,5.013976
5538.647,5.01111
5565.646,5.024919
5592.646,5.201514
5619.645,4.997217
5646.644,4.746095
5673.643,4.53722
5700.642,4.823396
5727.641,4.675722
5754.639,4.458343
5781.638,4.352171
5808.637,4.480476
5835.636,4.6976
5862.635,5.544891
5889.634,6.940124
5916.633,7.72766
5943.632,8.444098
5970.631,9.383189
5997.63,10.38139
6024.629,11.16127
6051.628,11.70909
6078.627,12.04492
6105.626,12.02463
6132.625,12.38664
6159.624,12.65083
6186.623,12.84895
6213.622,12.96787
6240.621,13.05779
6267.62,13.08047
6294.619,13.10677
6321.618,13.10642
6348.617,12.96251
6375.616,12.6721
6402.615,12.50041
6429.614,12.17297
6456.613,11.69493
6483.612,10.37102
6510.61,11.05491
6537.609,11.37669
6564.608,11.56306
6591.607,11.7297
6618.606,11.73213
6645.605,11.63701
6672.604,11.46279
6699.604,11.20018
6726.603,10.84965
6753.602,10.56344
6780.601,10.17698
6807.6,9.529669
6834.599,8.874026
6861.598,8.59751
6888.597,8.240589
6915.596,7.943194
6942.594,7.380875
6969.593,7.289477
6996.592,7.18934
7023.591,6.911208
7050.59,6.879535
7077.589,7.103094
7104.588,7.654251
7131.587,8.09327
7158.586,7.107963
7185.585,6.810956
7212.584,8.502679
7239.583,9.866385
7266.582,11.12825
7293.581,12.27693
7320.58,13.27754
7347.579,13.91827
7374.578,14.23746
7401.577,14.39808
7428.576,14.50565
7455.575,14.59906
7482.574,14.63301
7509.573,14.58909
7536.572,14.54805
7563.571,14.45588
7590.57,14.35421
7617.569,14.20384
7644.568,13.99743
7671.566,13.83801
7698.565,13.76393
7725.564,13.63145
7752.563,13.53428
7779.563,13.40007
7806.562,13.30164
7833.561,13.16199
7860.56,12.96643
7887.559,12.69906
7914.558,12.39484
7941.557,12.03408
7968.556,11.59948
7995.555,11.11696
8022.554,10.55852
8049.553,9.914408
8076.552,9.221581
8103.551,8.473692
8130.55,7.627137
8157.548,6.784008
8184.547,5.993073
8211.546,5.559367
8238.545,5.578976
8265.544,5.720398
8292.543,6.173151
8319.542,6.752609
8346.541,7.413899
8373.54,8.264924
8400.539,8.807633
8427.538,8.730689
8454.537,9.488791
8481.536,10.21722
8508.535,10.76892
8535.534,10.96914
8562.533,10.17081
8589.532,11.20382
8616.531,12.67898
8643.53,13.65125
8670.529,14.25468
8697.528,14.79628
8724.527,15.35503
8751.525,15.91343
8778.524,16.31476
8805.523,16.55801
8832.522,16.67638
8859.521,16.73349
8886.521,16.75614
8913.52,16.72156
8940.519,16.68555
8967.518,16.69221
8994.517,16.73853
9021.516,16.80417
9048.515,16.85338
9075.514,16.88214
9102.513,16.9165
9129.512,16.90851
9156.511,16.86558
9183.51,16.79338
9210.509,16.74139
9237.508,16.70306
9264.507,16.66843
9291.506,16.62046
9318.504,16.63349
9345.503,16.62948
9372.502,16.54815
9399.501,16.43407
9426.5,16.30692
9453.499,16.16823
9480.498,16.05974
9507.497,15.96192
9534.496,15.90046
9561.495,15.77279
9588.494,15.66946
9615.493,15.72565
9642.492,15.90795
9669.491,16.1564
9696.49,16.31821
9723.489,16.54616
9750.488,16.76469
9777.487,16.85933
9804.486,16.84344
9831.485,16.86411
9858.484,17.04815
9885.482,17.26958
9912.481,17.45087
9939.48,17.60392
9966.479,17.73093
9993.479,17.85154
10020.48,17.93498
10047.48,18.01027
10074.48,18.11287
10101.47,18.14797
10128.47,18.19616
10155.47,18.19267
10182.47,18.21869
10209.47,18.22815
10236.47,18.19674
10263.47,18.20042
10290.47,18.1867
10317.47,18.14999
10344.47,18.08108
10371.46,18.0811
10398.46,18.03088
10425.46,18.03154
10452.46,17.9313
10479.46,17.80782
10506.46,17.62882
10533.46,17.42743
10560.46,17.06319
10587.46,16.59481
10614.46,16.02334
10641.45,15.37584
10668.45,14.72564
10695.45,14.22141
10722.45,14.06669
10749.45,14.15022
10776.45,14.48265
10803.45,14.9418
10830.45,15.45215
10857.45,15.97625
10884.45,16.4623
10911.44,16.88439
10938.44,17.29089
10965.44,17.76711
10992.44,18.05043
11019.44,18.16293
11046.44,18.31276
11073.44,18.47052
11100.44,18.47952
11127.44,18.52231
11154.43,18.60944
11181.43,18.74062
11208.43,18.94616
11235.43,19.11626
11262.43,19.23026
11289.43,19.32202
11316.43,19.24397
11343.43,19.39795
11370.43,19.40878
11397.43,19.54966
11424.42,19.55957
11451.42,19.66307
11478.42,19.83509
11505.42,19.70796
11532.42,19.78994
11559.42,19.93277
11586.42,19.96112
11613.42,19.96923
11640.42,19.9381
11667.42,19.95272
11694.41,20.03235
11721.41,20.01748
11748.41,19.95296
11775.41,19.93178
11802.41,20.04457
11829.41,20.09608
11856.41,20.00694
11883.41,20.01007
11910.41,20.13623
11937.41,20.19533
11964.4,20.31173
11991.4,20.26901
11999.12,20.23955

File: S0048HDPE_2.csv
Wavenumber,Intensity
3999.706,3.241219
4026.705,3.213754
4053.704,3.224926
4080.703,3.226941
4107.702,3.218246
4134.701,3.228332
4161.7,3.237005
4188.699,3.251351
4215.698,3.295181
4242.697,3.312443
4269.696,3.351496
4296.694,3.397673
4323.693,3.325697
4350.692,3.379856
4377.691,3.477812
4404.69,3.682807
4431.689,3.906054
4458.688,4.115964
4485.688,4.317693
4512.687,4.566
4539.686,4.807543
4566.685,5.092177
4593.683,5.251489
4620.682,5.343239
4647.681,5.3971
4674.68,5.314091
4701.679,5.483961
4728.678,5.37079
4755.677,5.303915
4782.676,5.116598
4809.675,5.02532
4836.674,4.863929
4863.673,4.676016
4890.672,4.720845
4917.671,4.762065
4944.67,4.734826
4971.669,4.571671
4998.668,4.734652
5025.667,4.822619
5052.666,4.83258
5079.665,4.796606
5106.664,4.773541
5133.663,4.823533
5160.662,4.746356
5187.661,4.737068
5214.66,4.743752
5241.659,4.782892
5268.658,4.809595
5295.657,4.784969
5322.656,4.850293
5349.655,4.732298
5376.654,4.578351
5403.652,4.460903
5430.651,4.293344
5457.65,4.258027
5484.649,4.172975
5511.648,4.190924
5538.647,4.189177
5565.646,4.198257
5592.646,4.332724
5619.645,4.1838
5646.644,3.988549
5673.643,3.812939
5700.642,4.049434
5727.641,3.932004
5754.639,3.740393
5781.638,3.618681
5808.637,3.754981
5835.636,3.947922
5862.635,4.591585
5889.634,5.68188
5916.633,6.336063
5943.632,6.946243
5970.631,7.770617
5997.63,8.673532
6024.629,9.397552
6051.628,9.918453
6078.627,10.23543
6105.626,10.21515
6132.625,10.56268
6159.624,10.81345
6186.623,11.00532
6213.622,11.11736
6240.621,11.20497
6267.62,11.23002
6294.619,11.25693
6321.618,11.25076
6348.617,11.10991
6375.616,10.83175
6402.615,10.66679
6429.614,10.35345
6456.613,9.896621
6483.612,8.658115
6510.61,9.292668
6537.609,9.589555
6564.608,9.768544
6591.607,9.930682
6618.606,9.932032
6645.605,9.84573
6672.604,9.671808
6699.604,9.430982
6726.603,9.10769
6753.602,8.838778
6780.601,8.485424
6807.6,7.900184
6834.599,7.316668
6861.598,7.081441
6888.597,6.776654
6915.596,6.52635
6942.594,6.05192
6969.593,5.972306
6996.592,5.888584
7023.591,5.668161
7050.59,5.636117
7077.589,5.819208
7104.588,6.275698
7131.587,6.660379
7158.586,5.826369
7185.585,5.589912
7212.584,6.996743
7239.583,8.212163
7266.582,9.360715
7293.581,10.43265
7320.58,11.39801
7347.579,12.01097
7374.578,12.31885
7401.577,12.48686
7428.576,12.5964
7455.575,12.68277
7482.574,12.72556
7509.573,12.67417
7536.572,12.63607
7563.571,12.54774
7590.57,12.44569
7617.569,12.29236
7644.568,12.09493
7671.566,11.94389
7698.565,11.85723
7725.564,11.74535
7752.563,11.64513
7779.563,11.51171
7806.562,11.42302
7833.561,11.28571
7860.56,11.10187
7887.559,10.8415
7914.558,10.55852
7941.557,10.21682
7968.556,9.815153
7995.555,9.362791
8022.554,8.850276
8049.553,8.270502
8076.552,7.655281
8103.551,7.002454
8130.55,6.286217
8157.548,5.588083
8184.547,4.955684
8211.546,4.619196
8238.545,4.625098
8265.544,4.752924
8292.543,5.106825
8319.542,5.577519
8346.541,6.122747
8373.54,6.837885
8400.539,7.306486
8427.538,7.249302
8454.537,7.900835
8481.536,8.542642
8508.535,9.053586
8535.534,9.236919
8562.533,8.520014
8589.532,9.449755
8616.531,10.83539
8643.53,11.76525
8670.529,12.32963
8697.528,12.87006
8724.527,13.41609
8751.525,13.96525
8778.524,14.35412
8805.523,14.60081
8832.522,14.71617
8859.521,14.77901
8886.521,14.79752
8913.52,14.76612
8940.519,14.73251
8967.518,14.74305
8994.517,14.76728
9021.516,14.83871
9048.515,14.88608
9075.514,14.89936
9102.513,14.95204
9129.512,14.92861
9156.511,14.89178
9183.51,14.83442
9210.509,14.77665
9237.508,14.72963
9264.507,14.68615
9291.506,14.64297
9318.504,14.64757
9345.503,14.65502
9372.502,14.57628
9399.501,14.46211
9426.5,14.35844
9453.499,14.20686
9480.498,14.09929
9507.497,14.00719
9534.496,13.93109
9561.495,13.81624
9588.494,13.69901
9615.493,13.76017
9642.492,13.93664
9669.491,14.1619
9696.49,14.34977
9723.489,14.56417
9750.488,14.76529
9777.487,14.85089
9804.486,14.85416
9831.485,14.8615
9858.484,15.01311
9885.482,15.28871
9912.481,15.42815
9939.48,15.6034
9966.479,15.73407
9993.479,15.84477
10020.48,15.90407
10047.48,15.9927
10074.48,16.1134
10101.47,16.18117
10128.47,16.18493
10155.47,16.21976
10182.47,16.18002
10209.47,16.22369
10236.47,16.23203
10263.47,16.19926
10290.47,16.16824
10317.47,16.11661
10344.47,16.10345
10371.46,16.09246
10398.46,16.02003
10425.46,16.01516
10452.46,15.91091
10479.46,15.77766
10506.46,15.63268
10533.46,15.39641
10560.46,15.04422
10587.46,14.63343
10614.46,14.05055
10641.45,13.41866
10668.45,12.80749
10695.45,12.31145
10722.45,12.1267
10749.45,12.25923
10776.45,12.55631
10803.45,13.0083
10830.45,13.48676
10857.45,13.98402
10884.45,14.49203
10911.44,14.89396
10938.44,15.30045
10965.44,15.72372
10992.44,15.93813
11019.44,16.13842
11046.44,16.28695
11073.44,16.44676
11100.44,16.43515
11127.44,16.51225
11154.43,16.58075
11181.43,16.69627
11208.43,16.90059
11235.43,16.99196
11262.43,17.15748
11289.43,17.23778
11316.43,17.23484
11343.43,17.35578
11370.43,17.35414
11397.43,17.49541
11424.42,17.54742
11451.42,17.62865
11478.42,17.72265
11505.42,17.71822
11532.42,17.77394
11559.42,17.88674
11586.42,17.85973
11613.42,17.75366
11640.42,17.95646
11667.42,17.8424
11694.41,17.98357
11721.41,17.81881
11748.41,17.95644
11775.41,18.03379
11802.41,17.89841
11829.41,17.90407
11856.41,18.07021
11883.41,18.0512
11910.41,18.13992
11937.41,18.11586
11964.4,18.20177
11991.4,18.2009
11999.12,18.39866

File: S0048HDPE_3.csv
Wavenumber,Intensity
3999.706,3.195312
4026.705,3.183822
4053.704,3.194163
4080.703,3.199131
4107.702,3.20661
4134.701,3.204872
4161.7,3.221468
4188.699,3.233354
4215.698,3.276929
4242.697,3.296653
4269.696,3.322446
4296.694,3.353034
4323.693,3.314738
4350.692,3.347315
4377.691,3.42035
4404.69,3.639505
4431.689,3.939684
4458.688,4.259824
4485.688,4.586436
4512.687,4.97422
4539.686,5.341389
4566.685,5.753448
4593.683,5.988227
4620.682,6.123975
4647.681,6.206703
4674.68,6.096278
4701.679,6.338018
4728.678,6.183128
4755.677,6.091883
4782.676,5.839127
4809.675,5.707104
4836.674,5.471656
4863.673,5.19416
4890.672,5.267892
4917.671,5.331761
4944.67,5.298294
4971.669,5.058647
4998.668,5.309572
5025.667,5.450502
5052.666,5.471111
5079.665,5.41604
5106.664,5.386809
5133.663,5.456927
5160.662,5.345592
5187.661,5.331604
5214.66,5.346017
5241.659,5.398791
5268.658,5.440168
5295.657,5.405381
5322.656,5.501763
5349.655,5.319666
5376.654,5.081484
5403.652,4.906801
5430.651,4.640268
5457.65,4.587967
5484.649,4.456265
5511.648,4.482732
5538.647,4.478689
5565.646,4.496579
5592.646,4.692662
5619.645,4.46172
5646.644,4.162899
5673.643,3.902103
5700.642,4.249723
5727.641,4.079366
5754.639,3.798335
5781.638,3.643569
5808.637,3.821469
5835.636,4.094273
5862.635,5.041312
5889.634,6.557564
5916.633,7.397616
5943.632,8.15702
5970.631,9.142106
5997.63,10.17639
6024.629,10.98722
6051.628,11.55948
6078.627,11.90873
6105.626,11.87767
6132.625,12.25475
6159.624,12.51848
6186.623,12.72021
6213.622,12.83537
6240.621,12.92439
6267.62,12.94654
6294.619,12.96605
6321.618,12.95776
6348.617,12.79565
6375.616,12.48839
6402.615,12.30214
6429.614,11.9525
6456.613,11.44493
6483.612,10.05567
6510.61,10.75559
6537.609,11.08366
6564.608,11.27823
6591.607,11.4469
6618.606,11.44097
6645.605,11.33639
6672.604,11.14703
6699.604,10.87374
6726.603,10.49669
6753.602,10.19151
6780.601,9.784405
6807.6,9.107958
6834.599,8.418158
6861.598,8.124516
6888.597,7.755267
6915.596,7.440265
6942.594,6.852587
6969.593,6.75315
6996.592,6.646813
7023.591,6.358103
7050.59,6.316546
7077.589,6.54789
7104.588,7.107429
7131.587,7.572447
7158.586,6.542484
7185.585,6.235038
7212.584,7.96353
7239.583,9.377884
7266.582,10.68105
7293.581,11.87091
7320.58,12.91617
7347.579,13.57343
7374.578,13.90112
7401.577,14.07687
7428.576,14.19213
7455.575,14.2774
7482.574,14.30872
7509.573,14.25856
7536.572,14.20548
7563.571,14.11167
7590.57,13.99359
7617.569,13.84054
7644.568,13.62365
7671.566,13.45785
7698.565,13.36328
7725.564,13.23509
7752.563,13.12866
7779.563,12.97713
7806.562,12.87208
7833.561,12.72669
7860.56,12.51417
7887.559,12.23354
7914.558,11.90633
7941.557,11.53457
7968.556,11.07674
7995.555,10.5831
8022.554,9.997052
8049.553,9.33913
8076.552,8.616794
8103.551,7.843231
8130.55,6.985158
8157.548,6.116963
8184.547,5.301741
8211.546,4.864376
8238.545,4.875396
8265.544,5.022769
8292.543,5.479171
8319.542,6.080767
8346.541,6.750952
8373.54,7.605268
8400.539,8.156253
8427.538,8.092351
8454.537,8.85137
8481.536,9.586765
8508.535,10.16011
8535.534,10.36779
8562.533,9.555883
8589.532,10.59307
8616.531,12.11051
8643.53,13.10758
8670.529,13.72141
8697.528,14.28711
8724.527,14.8478
8751.525,15.43877
8778.524,15.85856
8805.523,16.09354
8832.522,16.22906
8859.521,16.27898
8886.521,16.29366
8913.52,16.26656
8940.519,16.21733
8967.518,16.22788
8994.517,16.26259
9021.516,16.31805
9048.515,16.37194
9075.514,16.38993
9102.513,16.42549
9129.512,16.38822
9156.511,16.35851
9183.51,16.28179
9210.509,16.23317
9237.508,16.18183
9264.507,16.13096
9291.506,16.09213
9318.504,16.08165
9345.503,16.07964
9372.502,15.98581
9399.501,15.88988
9426.5,15.75354
9453.499,15.60369
9480.498,15.48212
9507.497,15.38415
9534.496,15.32839
9561.495,15.17224
9588.494,15.06273
9615.493,15.12655
9642.492,15.28587
9669.491,15.53975
9696.49,15.73091
9723.489,15.9601
9750.488,16.16049
9777.487,16.22533
9804.486,16.2543
9831.485,16.25182
9858.484,16.4212
9885.482,16.70827
9912.481,16.85172
9939.48,17.00652
9966.479,17.15166
9993.479,17.25603
10020.48,17.30368
10047.48,17.40167
10074.48,17.51861
10101.47,17.58436
10128.47,17.58395
10155.47,17.60177
10182.47,17.62199
10209.47,17.59248
10236.47,17.58751
10263.47,17.57853
10290.47,17.527
10317.47,17.49876
10344.47,17.48524
10371.46,17.47824
10398.46,17.40941
10425.46,17.38373
10452.46,17.26169
10479.46,17.12803
10506.46,16.95064
10533.46,16.70349
10560.46,16.35025
10587.46,15.90572
10614.46,15.33754
10641.45,14.67622
10668.45,13.97467
10695.45,13.45265
10722.45,13.26828
10749.45,13.37779
10776.45,13.74518
10803.45,14.16935
10830.45,14.70588
10857.45,15.15805
10884.45,15.7413
10911.44,16.14522
10938.44,16.6238
10965.44,17.02489
10992.44,17.28981
11019.44,17.47557
11046.44,17.58229
11073.44,17.74346
11100.44,17.77602
11127.44,17.75146
11154.43,17.93775
11181.43,17.97449
11208.43,18.24024
11235.43,18.37618
11262.43,18.56128
11289.43,18.57051
11316.43,18.62214
11343.43,18.62974
11370.43,18.65695
11397.43,18.80449
11424.42,18.86483
11451.42,18.93074
11478.42,19.03737
11505.42,19.00599
11532.42,19.2178
11559.42,19.18304
11586.42,19.22387
11613.42,19.1728
11640.42,19.20663
11667.42,19.1173
11694.41,19.14591
11721.41,19.15046
11748.41,19.31703
11775.41,19.19185
11802.41,19.22692
11829.41,19.15006
11856.41,19.24079
11883.41,19.21344
11910.41,19.43145
11937.41,19.32867
11964.4,19.54807
11991.4,19.55373
11999.12,19.45622

File: S0048HDPE_4.csv
Wavenumber,Intensity
3999.706,3.349011
4026.705,3.306122
4053.704,3.317813
4080.703,3.318665
4107.702,3.305848
4134.701,3.318531
4161.7,3.319358
4188.699,3.339942
4215.698,3.383299
4242.697,3.40257
4269.696,3.444627
4296.694,3.498824
4323.693,3.403447
4350.692,3.472312
4377.691,3.583836
4404.69,3.803249
4431.689,4.042762
4458.688,4.277466
4485.688,4.51321
4512.687,4.801073
4539.686,5.077754
4566.685,5.395965
4593.683,5.577243
4620.682,5.677208
4647.681,5.73396
4674.68,5.630958
4701.679,5.821671
4728.678,5.680909
4755.677,5.601659
4782.676,5.386077
4809.675,5.269412
4836.674,5.082411
4863.673,4.864241
4890.672,4.905336
4917.671,4.951365
4944.67,4.921649
4971.669,4.730803
4998.668,4.922396
5025.667,5.022688
5052.666,5.03337
5079.665,4.985612
5106.664,4.961551
5133.663,5.015407
5160.662,4.927173
5187.661,4.911592
5214.66,4.923009
5241.659,4.969809
5268.658,4.995141
5295.657,4.965409
5322.656,5.047523
5349.655,4.899374
5376.654,4.715523
5403.652,4.590304
5430.651,4.384033
5457.65,4.351467
5484.649,4.254834
5511.648,4.276518
5538.647,4.273591
5565.646,4.286814
5592.646,4.433922
5619.645,4.268624
5646.644,4.052142
5673.643,3.865462
5700.642,4.111379
5727.641,3.990441
5754.639,3.7867
5781.638,3.680339
5808.637,3.806332
5835.636,4.004081
5862.635,4.736866
5889.634,5.971024
5916.633,6.699397
5943.632,7.360122
5970.631,8.239366
5997.63,9.177518
6024.629,9.912053
6051.628,10.42654
6078.627,10.75573
6105.626,10.72425
6132.625,11.07823
6159.624,11.31884
6186.623,11.50203
6213.622,11.6018
6240.621,11.6908
6267.62,11.7139
6294.619,11.73729
6321.618,11.73241
6348.617,11.58451
6375.616,11.30986
6402.615,11.14744
6429.614,10.83451
6456.613,10.373
6483.612,9.124357
6510.61,9.757419
6537.609,10.06184
6564.608,10.2429
6591.607,10.39642
6618.606,10.39455
6645.605,10.30195
6672.604,10.13022
6699.604,9.88525
6726.603,9.561296
6753.602,9.283807
6780.601,8.921289
6807.6,8.308795
6834.599,7.70319
6861.598,7.444604
6888.597,7.124619
6915.596,6.843822
6942.594,6.333955
6969.593,6.249732
6996.592,6.158353
7023.591,5.902085
7050.59,5.881504
7077.589,6.085874
7104.588,6.574048
7131.587,6.973266
7158.586,6.075971
7185.585,5.808479
7212.584,7.338656
7239.583,8.594887
7266.582,9.756827
7293.581,10.82137
7320.58,11.75924
7347.579,12.3414
7374.578,12.63648
7401.577,12.7912
7428.576,12.88258
7455.575,12.96447
7482.574,12.99885
7509.573,12.95902
7536.572,12.90839
7563.571,12.81698
7590.57,12.71912
7617.569,12.57833
7644.568,12.39075
7671.566,12.23599
7698.565,12.13959
7725.564,12.04297
7752.563,11.93216
7779.563,11.79711
7806.562,11.71117
7833.561,11.57849
7860.56,11.38781
7887.559,11.14238
7914.558,10.86329
7941.557,10.52442
7968.556,10.11254
7995.555,9.678169
8022.554,9.156675
8049.553,8.586279
8076.552,7.93593
8103.551,7.251932
8130.55,6.492685
8157.548,5.73929
8184.547,5.044145
8211.546,4.686952
8238.545,4.693465
8265.544,4.829802
8292.543,5.210225
8319.542,5.720435
8346.541,6.310654
8373.54,7.062777
8400.539,7.554012
8427.538,7.477869
8454.537,8.152386
8481.536,8.799167
8508.535,9.321142
8535.534,9.495581
8562.533,8.783867
8589.532,9.704803
8616.531,11.05116
8643.53,11.93388
8670.529,12.48107
8697.528,12.96404
8724.527,13.47897
8751.525,13.98213
8778.524,14.35405
8805.523,14.56226
8832.522,14.68323
8859.521,14.72441
8886.521,14.74553
8913.52,14.69848
8940.519,14.67058
8967.518,14.67533
8994.517,14.71668
9021.516,14.76358
9048.515,14.79419
9075.514,14.82167
9102.513,14.84944
9129.512,14.82711
9156.511,14.78234
9183.51,14.75619
9210.509,14.67653
9237.508,14.63808
9264.507,14.5853
9291.506,14.5253
9318.504,14.5655
9345.503,14.55373
9372.502,14.47725
9399.501,14.36669
9426.5,14.27331
9453.499,14.1281
9480.498,14.01269
9507.497,13.94604
9534.496,13.83889
9561.495,13.74564
9588.494,13.63769
9615.493,13.70023
9642.492,13.85236
9669.491,14.08269
9696.49,14.23651
9723.489,14.43154
9750.488,14.59145
9777.487,14.69608
9804.486,14.69504
9831.485,14.71138
9858.484,14.86389
9885.482,15.07247
9912.481,15.22138
9939.48,15.38707
9966.479,15.51405
9993.479,15.60527
10020.48,15.64515
10047.48,15.76397
10074.48,15.81177
10101.47,15.87186
10128.47,15.91488
10155.47,15.94106
10182.47,15.93073
10209.47,15.93556
10236.47,15.92727
10263.47,15.9488
10290.47,15.90749
10317.47,15.84515
10344.47,15.82737
10371.46,15.78649
10398.46,15.77032
10425.46,15.71339
10452.46,15.6271
10479.46,15.59119
10506.46,15.36987
10533.46,15.12257
10560.46,14.84819
10587.46,14.44437
10614.46,13.97445
10641.45,13.32006
10668.45,12.79198
10695.45,12.27491
10722.45,12.14953
10749.45,12.23952
10776.45,12.53988
10803.45,13.0003
10830.45,13.45022
10857.45,13.85176
10884.45,14.33292
10911.44,14.71618
10938.44,15.09426
10965.44,15.45782
10992.44,15.67122
11019.44,15.8146
11046.44,15.98523
11073.44,16.07708
11100.44,16.11325
11127.44,16.0544
11154.43,16.2489
11181.43,16.27088
11208.43,16.522
11235.43,16.68019
11262.43,16.7509
11289.43,16.75056
11316.43,16.79607
11343.43,16.96475
11370.43,17.0963
11397.43,16.95804
11424.42,17.15965
11451.42,17.18098
11478.42,17.17086
11505.42,17.14923
11532.42,17.36115
11559.42,17.29135
11586.42,17.31445
11613.42,17.32071
11640.42,17.33043
11667.42,17.41383
11694.41,17.36471
11721.41,17.30152
11748.41,17.36762
11775.41,17.32133
11802.41,17.29527
11829.41,17.233
11856.41,17.2281
11883.41,17.38761
11910.41,17.08735
11937.41,17.17232
11964.4,17.04222
11991.4,16.90482
11999.12,16.7619