Folder: nir_corr_po/Data/NIR (part 6)

File: H0008HDPE_3.csv
Wavenumber,Intensity
3999.706,3.107917
4026.705,3.087777
4053.704,3.097191
4080.703,3.098825
4107.702,3.095982
4134.701,3.102969
4161.7,3.112859
4188.699,3.130747
4215.698,3.181862
4242.697,3.199257
4269.696,3.232541
4296.694,3.259019
4323.693,3.209237
4350.692,3.252995
4377.691,3.321202
4404.69,3.556461
4431.689,3.864002
4458.688,4.152122
4485.688,4.412448
4512.687,4.741362
4539.686,5.039086
4566.685,5.376571
4593.683,5.568229
4620.682,5.675981
4647.681,5.741961
4674.68,5.661306
4701.679,5.835662
4728.678,5.709601
4755.677,5.649673
4782.676,5.451077
4809.675,5.346303
4836.674,5.165113
4863.673,4.938557
4890.672,5.000131
4917.671,5.057666
4944.67,5.02923
4971.669,4.829843
4998.668,5.048947
5025.667,5.164622
5052.666,5.188639
5079.665,5.140442
5106.664,5.114702
5133.663,5.190547
5160.662,5.103312
5187.661,5.096951
5214.66,5.118269
5241.659,5.168691
5268.658,5.212851
5295.657,5.193888
5322.656,5.282122
5349.655,5.125319
5376.654,4.912967
5403.652,4.769551
5430.651,4.531096
5457.65,4.476877
5484.649,4.347793
5511.648,4.383228
5538.647,4.389316
5565.646,4.416802
5592.646,4.622294
5619.645,4.39452
5646.644,4.077961
5673.643,3.779838
5700.642,4.220481
5727.641,4.037202
5754.639,3.653538
5781.638,3.474665
5808.637,3.697414
5835.636,4.056607
5862.635,5.081511
5889.634,6.477825
5916.633,7.206059
5943.632,7.792947
5970.631,8.597319
5997.63,9.438501
6024.629,10.09031
6051.628,10.55249
6078.627,10.83743
6105.626,10.73447
6132.625,11.11618
6159.624,11.37708
6186.623,11.55781
6213.622,11.66026
6240.621,11.75063
6267.62,11.77761
6294.619,11.8123
6321.618,11.8222
6348.617,11.71748
6375.616,11.49589
6402.615,11.36209
6429.614,11.10056
6456.613,10.71409
6483.612,9.608304
6510.61,10.18503
6537.609,10.46091
6564.608,10.62843
6591.607,10.78661
6618.606,10.79671
6645.605,10.72758
6672.604,10.5877
6699.604,10.37894
6726.603,10.08839
6753.602,9.851777
6780.601,9.524131
6807.6,8.973889
6834.599,8.406181
6861.598,8.1673
6888.597,7.855098
6915.596,7.586614
6942.594,7.086343
6969.593,6.992923
6996.592,6.901457
7023.591,6.653174
7050.59,6.621178
7077.589,6.824745
7104.588,7.329724
7131.587,7.756681
7158.586,6.841125
7185.585,6.551856
7212.584,8.136177
7239.583,9.368674
7266.582,10.5029
7293.581,11.50899
7320.58,12.38322
7347.579,12.94791
7374.578,13.21095
7401.577,13.36758
7428.576,13.46318
7455.575,13.54618
7482.574,13.58775
7509.573,13.56039
7536.572,13.53589
7563.571,13.47291
7590.57,13.39813
7617.569,13.27628
7644.568,13.11146
7671.566,12.98603
7698.565,12.91405
7725.564,12.81724
7752.563,12.73585
7779.563,12.62042
7806.562,12.55109
7833.561,12.43472
7860.56,12.26853
7887.559,12.04069
7914.558,11.78282
7941.557,11.47225
7968.556,11.09339
7995.555,10.67488
8022.554,10.17384
8049.553,9.594751
8076.552,8.962832
8103.551,8.269376
8130.55,7.459383
8157.548,6.621176
8184.547,5.783786
8211.546,5.310644
8238.545,5.334583
8265.544,5.513071
8292.543,6.020174
8319.542,6.639197
8346.541,7.306659
8373.54,8.143227
8400.539,8.648592
8427.538,8.588026
8454.537,9.308333
8481.536,9.966362
8508.535,10.48571
8535.534,10.67936
8562.533,9.972652
8589.532,10.90175
8616.531,12.25158
8643.53,13.10389
8670.529,13.65129
8697.528,14.15084
8724.527,14.63131
8751.525,15.13312
8778.524,15.48955
8805.523,15.71288
8832.522,15.81672
8859.521,15.88574
8886.521,15.90567
8913.52,15.88695
8940.519,15.85445
8967.518,15.88458
8994.517,15.91171
9021.516,15.96475
9048.515,16.01548
9075.514,16.04667
9102.513,16.09892
9129.512,16.07335
9156.511,16.06494
9183.51,16.01117
9210.509,15.96545
9237.508,15.91877
9264.507,15.92173
9291.506,15.89129
9318.504,15.89607
9345.503,15.89623
9372.502,15.82088
9399.501,15.71807
9426.5,15.64118
9453.499,15.51176
9480.498,15.41359
9507.497,15.35013
9534.496,15.263
9561.495,15.18217
9588.494,15.09887
9615.493,15.14481
9642.492,15.31365
9669.491,15.52
9696.49,15.70507
9723.489,15.90373
9750.488,16.09479
9777.487,16.20746
9804.486,16.21215
9831.485,16.24176
9858.484,16.39858
9885.482,16.65368
9912.481,16.80424
9939.48,16.97343
9966.479,17.14014
9993.479,17.22575
10020.48,17.27968
10047.48,17.37773
10074.48,17.48528
10101.47,17.51962
10128.47,17.55825
10155.47,17.58465
10182.47,17.61334
10209.47,17.5813
10236.47,17.60809
10263.47,17.60923
10290.47,17.5917
10317.47,17.525
10344.47,17.52181
10371.46,17.54496
10398.46,17.50781
10425.46,17.467
10452.46,17.37916
10479.46,17.27698
10506.46,17.16077
10533.46,16.94546
10560.46,16.62493
10587.46,16.24195
10614.46,15.70652
10641.45,15.13999
10668.45,14.54522
10695.45,14.09536
10722.45,13.93103
10749.45,13.97464
10776.45,14.33033
10803.45,14.79154
10830.45,15.21145
10857.45,15.69416
10884.45,16.18789
10911.44,16.59587
10938.44,16.97891
10965.44,17.26054
10992.44,17.57033
11019.44,17.74183
11046.44,17.8583
11073.44,17.96488
11100.44,17.9757
11127.44,18.09318
11154.43,18.14669
11181.43,18.24291
11208.43,18.52003
11235.43,18.62676
11262.43,18.67196
11289.43,18.80197
11316.43,18.83029
11343.43,18.92507
11370.43,18.97016
11397.43,19.14559
11424.42,19.07704
11451.42,19.23808
11478.42,19.41831
11505.42,19.21711
11532.42,19.42027
11559.42,19.49027
11586.42,19.55799
11613.42,19.55919
11640.42,19.55186
11667.42,19.48117
11694.41,19.62087
11721.41,19.65856
11748.41,19.64135
11775.41,19.68811
11802.41,19.51598
11829.41,19.55145
11856.41,19.66607
11883.41,19.64971
11910.41,19.76749
11937.41,19.95251
11964.4,20.06508
11991.4,19.93248
11999.12,20.03335

File: H0008HDPE_4.csv
Wavenumber,Intensity
3999.706,3.068518
4026.705,3.046258
4053.704,3.054623
4080.703,3.048398
4107.702,3.037995
4134.701,3.047909
4161.7,3.047655
4188.699,3.071506
4215.698,3.115194
4242.697,3.128736
4269.696,3.166452
4296.694,3.200502
4323.693,3.093517
4350.692,3.183293
4377.691,3.250629
4404.69,3.426252
4431.689,3.681767
4458.688,3.941237
4485.688,4.194202
4512.687,4.517881
4539.686,4.817977
4566.685,5.164145
4593.683,5.364254
4620.682,5.478792
4647.681,5.549466
4674.68,5.454057
4701.679,5.648365
4728.678,5.501568
4755.677,5.438821
4782.676,5.220276
4809.675,5.115423
4836.674,4.922848
4863.673,4.697877
4890.672,4.760255
4917.671,4.814834
4944.67,4.790279
4971.669,4.587351
4998.668,4.811931
5025.667,4.933303
5052.666,4.957488
5079.665,4.909073
5106.664,4.884103
5133.663,4.961365
5160.662,4.870903
5187.661,4.863636
5214.66,4.890663
5241.659,4.947805
5268.658,4.989074
5295.657,4.968252
5322.656,5.066982
5349.655,4.900429
5376.654,4.692697
5403.652,4.548685
5430.651,4.305817
5457.65,4.269769
5484.649,4.147832
5511.648,4.182359
5538.647,4.185895
5565.646,4.213844
5592.646,4.417752
5619.645,4.204264
5646.644,3.908264
5673.643,3.650113
5700.642,4.028962
5727.641,3.866742
5754.639,3.553881
5781.638,3.413167
5808.637,3.586004
5835.636,3.895979
5862.635,4.895497
5889.634,6.377185
5916.633,7.198813
5943.632,7.873315
5970.631,8.805973
5997.63,9.800023
6024.629,10.56076
6051.628,11.10529
6078.627,11.44515
6105.626,11.32398
6132.625,11.77359
6159.624,12.08349
6186.623,12.28984
6213.622,12.41333
6240.621,12.51697
6267.62,12.5575
6294.619,12.60002
6321.618,12.6151
6348.617,12.48694
6375.616,12.224
6402.615,12.06709
6429.614,11.76607
6456.613,11.30591
6483.612,10.00591
6510.61,10.69252
6537.609,11.01833
6564.608,11.22307
6591.607,11.40711
6618.606,11.42234
6645.605,11.34001
6672.604,11.17318
6699.604,10.9315
6726.603,10.59886
6753.602,10.31893
6780.601,9.938446
6807.6,9.291678
6834.599,8.636772
6861.598,8.367825
6888.597,8.004248
6915.596,7.704947
6942.594,7.131901
6969.593,7.03401
6996.592,6.928089
7023.591,6.644641
7050.59,6.616884
7077.589,6.857905
7104.588,7.43718
7131.587,7.928469
7158.586,6.889603
7185.585,6.544822
7212.584,8.359993
7239.583,9.802015
7266.582,11.12032
7293.581,12.29473
7320.58,13.31322
7347.579,13.96349
7374.578,14.27979
7401.577,14.44645
7428.576,14.55611
7455.575,14.66019
7482.574,14.70955
7509.573,14.68373
7536.572,14.6476
7563.571,14.56599
7590.57,14.47905
7617.569,14.34462
7644.568,14.16101
7671.566,14.01158
7698.565,13.92553
7725.564,13.81705
7752.563,13.73337
7779.563,13.59913
7806.562,13.52318
7833.561,13.38379
7860.56,13.19544
7887.559,12.93742
7914.558,12.64027
7941.557,12.27155
7968.556,11.83925
7995.555,11.34702
8022.554,10.76943
8049.553,10.10362
8076.552,9.356531
8103.551,8.549948
8130.55,7.618079
8157.548,6.670598
8184.547,5.742832
8211.546,5.250639
8238.545,5.276536
8265.544,5.457073
8292.543,6.010399
8319.542,6.706162
8346.541,7.455158
8373.54,8.417463
8400.539,9.028177
8427.538,8.949463
8454.537,9.770406
8481.536,10.54617
8508.535,11.16201
8535.534,11.37643
8562.533,10.54276
8589.532,11.61772
8616.531,13.1893
8643.53,14.21513
8670.529,14.85093
8697.528,15.41209
8724.527,15.99013
8751.525,16.54663
8778.524,16.97206
8805.523,17.22021
8832.522,17.36014
8859.521,17.43304
8886.521,17.46302
8913.52,17.43963
8940.519,17.42106
8967.518,17.42943
8994.517,17.49385
9021.516,17.54375
9048.515,17.60384
9075.514,17.65205
9102.513,17.67068
9129.512,17.67895
9156.511,17.65035
9183.51,17.62566
9210.509,17.57498
9237.508,17.53798
9264.507,17.49565
9291.506,17.46173
9318.504,17.50217
9345.503,17.48158
9372.502,17.40777
9399.501,17.33779
9426.5,17.23901
9453.499,17.07576
9480.498,16.96204
9507.497,16.8876
9534.496,16.78644
9561.495,16.69954
9588.494,16.59634
9615.493,16.66749
9642.492,16.8548
9669.491,17.10961
9696.49,17.3157
9723.489,17.56408
9750.488,17.75732
9777.487,17.86745
9804.486,17.87313
9831.485,17.93975
9858.484,18.14037
9885.482,18.35654
9912.481,18.58064
9939.48,18.75084
9966.479,18.87641
9993.479,19.00225
10020.48,19.09487
10047.48,19.19653
10074.48,19.30186
10101.47,19.34898
10128.47,19.44166
10155.47,19.41841
10182.47,19.4607
10209.47,19.46144
10236.47,19.50157
10263.47,19.51271
10290.47,19.48225
10317.47,19.41225
10344.47,19.43659
10371.46,19.41679
10398.46,19.4015
10425.46,19.38189
10452.46,19.27323
10479.46,19.17819
10506.46,18.97839
10533.46,18.69538
10560.46,18.38069
10587.46,17.97692
10614.46,17.41334
10641.45,16.68418
10668.45,16.03096
10695.45,15.47683
10722.45,15.2906
10749.45,15.4566
10776.45,15.73585
10803.45,16.33446
10830.45,16.85613
10857.45,17.322
10884.45,17.89921
10911.44,18.40041
10938.44,18.84837
10965.44,19.23465
10992.44,19.55986
11019.44,19.68226
11046.44,19.88058
11073.44,20.03763
11100.44,20.0617
11127.44,20.08453
11154.43,20.2548
11181.43,20.3103
11208.43,20.60219
11235.43,20.68136
11262.43,20.90313
11289.43,20.94113
11316.43,21.00387
11343.43,21.19688
11370.43,21.18306
11397.43,21.23087
11424.42,21.40744
11451.42,21.3599
11478.42,21.42416
11505.42,21.53045
11532.42,21.65042
11559.42,21.82263
11586.42,21.67596
11613.42,21.73041
11640.42,21.89642
11667.42,21.85951
11694.41,21.80239
11721.41,21.87458
11748.41,21.79726
11775.41,21.78336
11802.41,21.79988
11829.41,21.81103
11856.41,21.83322
11883.41,21.99748
11910.41,21.92371
11937.41,22.02148
11964.4,21.93221
11991.4,22.03413
11999.12,21.80743

File: H0008HDPE_5.csv
Wavenumber,Intensity
3999.706,3.024316
4026.705,3.001548
4053.704,3.014596
4080.703,3.008748
4107.702,2.9959
4134.701,3.002025
4161.7,3.006141
4188.699,3.023189
4215.698,3.068663
4242.697,3.084782
4269.696,3.125079
4296.694,3.159894
4323.693,3.048306
4350.692,3.138631
4377.691,3.207355
4404.69,3.376779
4431.689,3.631621
4458.688,3.890659
4485.688,4.138817
4512.687,4.460147
4539.686,4.759755
4566.685,5.100227
4593.683,5.298269
4620.682,5.41196
4647.681,5.481573
4674.68,5.386715
4701.679,5.578185
4728.678,5.432734
4755.677,5.371869
4782.676,5.156984
4809.675,5.049285
4836.674,4.86229
4863.673,4.637399
4890.672,4.699563
4917.671,4.753967
4944.67,4.732104
4971.669,4.527907
4998.668,4.755366
5025.667,4.873349
5052.666,4.894549
5079.665,4.845733
5106.664,4.824401
5133.663,4.898069
5160.662,4.80826
5187.661,4.803992
5214.66,4.824913
5241.659,4.882744
5268.658,4.922009
5295.657,4.906354
5322.656,5.004252
5349.655,4.839129
5376.654,4.634379
5403.652,4.491756
5430.651,4.25093
5457.65,4.213728
5484.649,4.096662
5511.648,4.129522
5538.647,4.133093
5565.646,4.160481
5592.646,4.355392
5619.645,4.147772
5646.644,3.860146
5673.643,3.60099
5700.642,3.978899
5727.641,3.819396
5754.639,3.507113
5781.638,3.365092
5808.637,3.536211
5835.636,3.841768
5862.635,4.832658
5889.634,6.304056
5916.633,7.115062
5943.632,7.781597
5970.631,8.711193
5997.63,9.697252
6024.629,10.46347
6051.628,11.00173
6078.627,11.34104
6105.626,11.22208
6132.625,11.66864
6159.624,11.97194
6186.623,12.18085
6213.622,12.30094
6240.621,12.4052
6267.62,12.44911
6294.619,12.49403
6321.618,12.50031
6348.617,12.37551
6375.616,12.11327
6402.615,11.96046
6429.614,11.65917
6456.613,11.20061
6483.612,9.908514
6510.61,10.58619
6537.609,10.91516
6564.608,11.11718
6591.607,11.29644
6618.606,11.31281
6645.605,11.23149
6672.604,11.06834
6699.604,10.8239
6726.603,10.4916
6753.602,10.2097
6780.601,9.839327
6807.6,9.190916
6834.599,8.540608
6861.598,8.26736
6888.597,7.92014
6915.596,7.60399
6942.594,7.048554
6969.593,6.944682
6996.592,6.844743
7023.591,6.560641
7050.59,6.53733
7077.589,6.776492
7104.588,7.350861
7131.587,7.834154
7158.586,6.802113
7185.585,6.468444
7212.584,8.263735
7239.583,9.69599
7266.582,11.00429
7293.581,12.17184
7320.58,13.18995
7347.579,13.82296
7374.578,14.1411
7401.577,14.31763
7428.576,14.42468
7455.575,14.51722
7482.574,14.56342
7509.573,14.53779
7536.572,14.50966
7563.571,14.42523
7590.57,14.33518
7617.569,14.20662
7644.568,14.02429
7671.566,13.87951
7698.565,13.78453
7725.564,13.68144
7752.563,13.58487
7779.563,13.46589
7806.562,13.37882
7833.561,13.24413
7860.56,13.05478
7887.559,12.80245
7914.558,12.50331
7941.557,12.14678
7968.556,11.70356
7995.555,11.21094
8022.554,10.63772
8049.553,9.981024
8076.552,9.248823
8103.551,8.441418
8130.55,7.531397
8157.548,6.579158
8184.547,5.661852
8211.546,5.166167
8238.545,5.195066
8265.544,5.38108
8292.543,5.920448
8319.542,6.60216
8346.541,7.347923
8373.54,8.304846
8400.539,8.917439
8427.538,8.831226
8454.537,9.637529
8481.536,10.40818
8508.535,11.02545
8535.534,11.23625
8562.533,10.40711
8589.532,11.48855
8616.531,13.04314
8643.53,14.05522
8670.529,14.68495
8697.528,15.23554
8724.527,15.80467
8751.525,16.37154
8778.524,16.78858
8805.523,17.02374
8832.522,17.16786
8859.521,17.23746
8886.521,17.26832
8913.52,17.24224
8940.519,17.22488
8967.518,17.21735
8994.517,17.28536
9021.516,17.35164
9048.515,17.40524
9075.514,17.45674
9102.513,17.47493
9129.512,17.48432
9156.511,17.45323
9183.51,17.41441
9210.509,17.36906
9237.508,17.33844
9264.507,17.28127
9291.506,17.23706
9318.504,17.29481
9345.503,17.28181
9372.502,17.22032
9399.501,17.11503
9426.5,17.02118
9453.499,16.86547
9480.498,16.7408
9507.497,16.68749
9534.496,16.59714
9561.495,16.48079
9588.494,16.38068
9615.493,16.4636
9642.492,16.63126
9669.491,16.8753
9696.49,17.08205
9723.489,17.32964
9750.488,17.52831
9777.487,17.64947
9804.486,17.6559
9831.485,17.6797
9858.484,17.90553
9885.482,18.13939
9912.481,18.34775
9939.48,18.4935
9966.479,18.66613
9993.479,18.74504
10020.48,18.8445
10047.48,18.98006
10074.48,19.0276
10101.47,19.10602
10128.47,19.15826
10155.47,19.18338
10182.47,19.20316
10209.47,19.24566
10236.47,19.21161
10263.47,19.24683
10290.47,19.19432
10317.47,19.13846
10344.47,19.17977
10371.46,19.14935
10398.46,19.10462
10425.46,19.05272
10452.46,18.98734
10479.46,18.90634
10506.46,18.71718
10533.46,18.44859
10560.46,18.12891
10587.46,17.65792
10614.46,17.14427
10641.45,16.45509
10668.45,15.77366
10695.45,15.21657
10722.45,15.08586
10749.45,15.21685
10776.45,15.49221
10803.45,16.06114
10830.45,16.55761
10857.45,17.07302
10884.45,17.60579
10911.44,18.10335
10938.44,18.57717
10965.44,18.9805
10992.44,19.23533
11019.44,19.43561
11046.44,19.56488
11073.44,19.66888
11100.44,19.71849
11127.44,19.71643
11154.43,19.89402
11181.43,20.00988
11208.43,20.27066
11235.43,20.31617
11262.43,20.56162
11289.43,20.61909
11316.43,20.73942
11343.43,20.79638
11370.43,20.8245
11397.43,20.89631
11424.42,21.06127
11451.42,21.14183
11478.42,21.05991
11505.42,21.10472
11532.42,21.35017
11559.42,21.36311
11586.42,21.29572
11613.42,21.37945
11640.42,21.45888
11667.42,21.48136
11694.41,21.48253
11721.41,21.47186
11748.41,21.50727
11775.41,21.33573
11802.41,21.36791
11829.41,21.38419
11856.41,21.44027
11883.41,21.61233
11910.41,21.49623
11937.41,21.6659
11964.4,21.71811
11991.4,21.53583
11999.12,21.53337

File: H0008HDPE_6.csv
Wavenumber,Intensity
3999.706,3.775532
4026.705,3.764402
4053.704,3.784916
4080.703,3.794633
4107.702,3.790884
4134.701,3.80423
4161.7,3.812873
4188.699,3.83875
4215.698,3.880198
4242.697,3.905516
4269.696,3.936013
4296.694,3.965222
4323.693,3.920017
4350.692,3.960184
4377.691,4.006936
4404.69,4.183634
4431.689,4.456334
4458.688,4.73363
4485.688,4.994274
4512.687,5.333047
4539.686,5.654762
4566.685,6.01427
4593.683,6.225004
4620.682,6.343482
4647.681,6.418896
4674.68,6.322443
4701.679,6.523132
4728.678,6.377386
4755.677,6.308551
4782.676,6.092425
4809.675,5.98068
4836.674,5.782403
4863.673,5.54791
4890.672,5.612532
4917.671,5.670187
4944.67,5.647779
4971.669,5.429851
4998.668,5.666342
5025.667,5.793017
5052.666,5.815245
5079.665,5.768584
5106.664,5.743753
5133.663,5.814962
5160.662,5.727953
5187.661,5.723626
5214.66,5.74394
5241.659,5.806295
5268.658,5.850935
5295.657,5.82805
5322.656,5.92907
5349.655,5.760526
5376.654,5.546988
5403.652,5.38948
5430.651,5.140228
5457.65,5.100644
5484.649,4.970514
5511.648,5.005788
5538.647,5.008646
5565.646,5.042215
5592.646,5.244945
5619.645,5.027145
5646.644,4.722853
5673.643,4.452306
5700.642,4.847531
5727.641,4.685555
5754.639,4.360577
5781.638,4.226376
5808.637,4.390388
5835.636,4.706872
5862.635,5.734243
5889.634,7.259067
5916.633,8.095536
5943.632,8.772204
5970.631,9.71234
5997.63,10.70461
6024.629,11.46888
6051.628,12.00901
6078.627,12.34498
6105.626,12.22523
6132.625,12.67101
6159.624,12.97433
6186.623,13.17968
6213.622,13.29975
6240.621,13.40116
6267.62,13.44227
6294.619,13.483
6321.618,13.48785
6348.617,13.36441
6375.616,13.09694
6402.615,12.94808
6429.614,12.64487
6456.613,12.18352
6483.612,10.8854
6510.61,11.56409
6537.609,11.8914
6564.608,12.09198
6591.607,12.26867
6618.606,12.28281
6645.605,12.2023
6672.604,12.03228
6699.604,11.79173
6726.603,11.45931
6753.602,11.17417
6780.601,10.78801
6807.6,10.15309
6834.599,9.486746
6861.598,9.210033
6888.597,8.856467
6915.596,8.551482
6942.594,7.972536
6969.593,7.871877
6996.592,7.76599
7023.591,7.476346
7050.59,7.444297
7077.589,7.677683
7104.588,8.264956
7131.587,8.752856
7158.586,7.710772
7185.585,7.364675
7212.584,9.17808
7239.583,10.62618
7266.582,11.92587
7293.581,13.0888
7320.58,14.09079
7347.579,14.72788
7374.578,15.04149
7401.577,15.19776
7428.576,15.30146
7455.575,15.39717
7482.574,15.44377
7509.573,15.41069
7536.572,15.37665
7563.571,15.29805
7590.57,15.20676
7617.569,15.07338
7644.568,14.89005
7671.566,14.73836
7698.565,14.64592
7725.564,14.55138
7752.563,14.45269
7779.563,14.33072
7806.562,14.23676
7833.561,14.10942
7860.56,13.92085
7887.559,13.66233
7914.558,13.36666
7941.557,13.00924
7968.556,12.5681
7995.555,12.08322
8022.554,11.51234
8049.553,10.85604
8076.552,10.1225
8103.551,9.319678
8130.55,8.405428
8157.548,7.466813
8184.547,6.548876
8211.546,6.054082
8238.545,6.087183
8265.544,6.265878
8292.543,6.805374
8319.542,7.479878
8346.541,8.214718
8373.54,9.177927
8400.539,9.778247
8427.538,9.696722
8454.537,10.50725
8481.536,11.26423
8508.535,11.87113
8535.534,12.08741
8562.533,11.26293
8589.532,12.32005
8616.531,13.85131
8643.53,14.85051
8670.529,15.46502
8697.528,16.01246
8724.527,16.56809
8751.525,17.13126
8778.524,17.54332
8805.523,17.77627
8832.522,17.91954
8859.521,17.97459
8886.521,18.02215
8913.52,17.97461
8940.519,17.95782
8967.518,17.97029
8994.517,18.02541
9021.516,18.09247
9048.515,18.13708
9075.514,18.19379
9102.513,18.20839
9129.512,18.22049
9156.511,18.17629
9183.51,18.15065
9210.509,18.09719
9237.508,18.06987
9264.507,18.00718
9291.506,17.95409
9318.504,18.02317
9345.503,17.99847
9372.502,17.9393
9399.501,17.86886
9426.5,17.74992
9453.499,17.60191
9480.498,17.48232
9507.497,17.4264
9534.496,17.3241
9561.495,17.22262
9588.494,17.11946
9615.493,17.1769
9642.492,17.35027
9669.491,17.61738
9696.49,17.84332
9723.489,18.04738
9750.488,18.24558
9777.487,18.36579
9804.486,18.35433
9831.485,18.39757
9858.484,18.59929
9885.482,18.83517
9912.481,19.02965
9939.48,19.18823
9966.479,19.3421
9993.479,19.44859
10020.48,19.5336
10047.48,19.67235
10074.48,19.72135
10101.47,19.78438
10128.47,19.83317
10155.47,19.85229
10182.47,19.87432
10209.47,19.92314
10236.47,19.87665
10263.47,19.93475
10290.47,19.88827
10317.47,19.85549
10344.47,19.8556
10371.46,19.8422
10398.46,19.83135
10425.46,19.79473
10452.46,19.65631
10479.46,19.61483
10506.46,19.4143
10533.46,19.13349
10560.46,18.8214
10587.46,18.39273
10614.46,17.88343
10641.45,17.19725
10668.45,16.51456
10695.45,15.92699
10722.45,15.81853
10749.45,15.93795
10776.45,16.25817
10803.45,16.80779
10830.45,17.36029
10857.45,17.81207
10884.45,18.34876
10911.44,18.78049
10938.44,19.33137
10965.44,19.64797
10992.44,19.93342
11019.44,20.12595
11046.44,20.27856
11073.44,20.40088
11100.44,20.4267
11127.44,20.41421
11154.43,20.60553
11181.43,20.68444
11208.43,20.95203
11235.43,21.08353
11262.43,21.19406
11289.43,21.25663
11316.43,21.41191
11343.43,21.60438
11370.43,21.4838
11397.43,21.60892
11424.42,21.77047
11451.42,21.8709
11478.42,21.82125
11505.42,21.86021
11532.42,22.14052
11559.42,22.13249
11586.42,22.08037
11613.42,22.15663
11640.42,22.21837
11667.42,22.20596
11694.41,22.16205
11721.41,22.12259
11748.41,22.26729
11775.41,22.2369
11802.41,22.03311
11829.41,22.1718
11856.41,22.15711
11883.41,22.38052
11910.41,22.27402
11937.41,22.38281
11964.4,22.49173
11991.4,22.28336
11999.12,22.31829