Folder: nir_corr_po/Data/NIR (part 2)

File: H0002LDPE_5.csv
Wavenumber,Intensity
3999.706,3.070166
4026.705,3.085577
4053.704,3.10176
4080.703,3.116038
4107.702,3.118123
4134.701,3.130319
4161.7,3.137086
4188.699,3.15757
4215.698,3.186077
4242.697,3.205086
4269.696,3.221681
4296.694,3.232619
4323.693,3.229025
4350.692,3.24097
4377.691,3.243379
4404.69,3.248235
4431.689,3.273245
4458.688,3.340818
4485.688,3.433127
4512.687,3.549742
4539.686,3.685696
4566.685,3.850461
4593.683,3.967041
4620.682,4.033693
4647.681,4.079505
4674.68,4.053414
4701.679,4.140027
4728.678,4.091598
4755.677,4.049067
4782.676,3.967271
4809.675,3.915765
4836.674,3.824462
4863.673,3.727718
4890.672,3.741337
4917.671,3.762586
4944.67,3.747724
4971.669,3.658794
4998.668,3.742873
5025.667,3.785599
5052.666,3.797327
5079.665,3.78211
5106.664,3.772222
5133.663,3.797484
5160.662,3.769357
5187.661,3.764409
5214.66,3.769541
5241.659,3.787958
5268.658,3.800114
5295.657,3.791155
5322.656,3.818099
5349.655,3.766708
5376.654,3.698965
5403.652,3.628273
5430.651,3.558946
5457.65,3.533071
5484.649,3.503529
5511.648,3.503456
5538.647,3.505115
5565.646,3.513497
5592.646,3.550906
5619.645,3.503919
5646.644,3.454201
5673.643,3.438666
5700.642,3.468769
5727.641,3.466154
5754.639,3.436318
5781.638,3.435126
5808.637,3.43589
5835.636,3.463347
5862.635,3.587768
5889.634,4.043142
5916.633,4.481353
5943.632,5.262709
5970.631,5.904964
5997.63,6.465887
6024.629,6.903929
6051.628,7.216279
6078.627,7.433202
6105.626,7.55878
6132.625,7.702266
6159.624,7.877884
6186.623,8.03562
6213.622,8.130924
6240.621,8.196634
6267.62,8.229618
6294.619,8.256176
6321.618,8.260038
6348.617,8.197613
6375.616,8.059547
6402.615,7.968965
6429.614,7.793921
6456.613,7.539246
6483.612,6.835929
6510.61,7.106051
6537.609,7.25108
6564.608,7.333189
6591.607,7.406214
6618.606,7.397347
6645.605,7.324164
6672.604,7.214028
6699.604,7.0585
6726.603,6.860593
6753.602,6.672909
6780.601,6.440085
6807.6,6.089364
6834.599,5.740513
6861.598,5.559171
6888.597,5.333578
6915.596,5.127987
6942.594,4.838428
6969.593,4.751653
6996.592,4.693217
7023.591,4.56734
7050.59,4.513813
7077.589,4.56588
7104.588,4.86477
7131.587,5.117147
7158.586,4.62167
7185.585,4.417572
7212.584,5.229195
7239.583,5.989043
7266.582,6.683221
7293.581,7.370141
7320.58,7.967736
7347.579,8.324267
7374.578,8.649654
7401.577,8.879904
7428.576,8.974224
7455.575,9.028147
7482.574,9.051611
7509.573,9.041753
7536.572,9.023927
7563.571,8.978692
7590.57,8.921896
7617.569,8.836241
7644.568,8.741885
7671.566,8.645928
7698.565,8.578152
7725.564,8.50708
7752.563,8.447482
7779.563,8.356814
7806.562,8.291135
7833.561,8.201306
7860.56,8.091397
7887.559,7.932357
7914.558,7.750016
7941.557,7.521815
7968.556,7.26608
7995.555,6.965707
8022.554,6.637927
8049.553,6.25568
8076.552,5.846566
8103.551,5.395644
8130.55,4.916713
8157.548,4.447952
8184.547,4.056839
8211.546,3.867752
8238.545,3.869195
8265.544,3.919147
8292.543,4.104565
8319.542,4.353227
8346.541,4.661808
8373.54,5.010828
8400.539,5.282102
8427.538,5.371564
8454.537,5.790668
8481.536,6.211872
8508.535,6.541095
8535.534,6.695782
8562.533,6.421792
8589.532,6.907113
8616.531,7.615971
8643.53,8.162243
8670.529,8.491253
8697.528,8.788776
8724.527,9.161541
8751.525,9.496997
8778.524,9.742537
8805.523,9.908654
8832.522,10.01475
8859.521,10.03649
8886.521,10.0754
8913.52,10.08231
8940.519,10.07082
8967.518,10.0746
8994.517,10.10599
9021.516,10.11146
9048.515,10.13478
9075.514,10.16317
9102.513,10.16442
9129.512,10.16859
9156.511,10.14868
9183.51,10.12148
9210.509,10.09402
9237.508,10.06139
9264.507,10.03716
9291.506,10.00683
9318.504,10.01641
9345.503,10.01402
9372.502,9.97708
9399.501,9.932229
9426.5,9.880806
9453.499,9.8002
9480.498,9.745996
9507.497,9.715237
9534.496,9.662835
9561.495,9.61769
9588.494,9.578591
9615.493,9.589579
9642.492,9.674129
9669.491,9.786125
9696.49,9.888056
9723.489,9.981321
9750.488,10.07916
9777.487,10.14496
9804.486,10.13052
9831.485,10.15727
9858.484,10.24731
9885.482,10.33434
9912.481,10.46499
9939.48,10.53158
9966.479,10.61515
9993.479,10.67072
10020.48,10.73055
10047.48,10.74896
10074.48,10.80877
10101.47,10.82503
10128.47,10.88661
10155.47,10.89756
10182.47,10.88707
10209.47,10.94392
10236.47,10.93662
10263.47,10.95366
10290.47,10.92886
10317.47,10.89239
10344.47,10.87117
10371.46,10.86622
10398.46,10.85106
10425.46,10.80763
10452.46,10.78548
10479.46,10.73265
10506.46,10.63634
10533.46,10.51276
10560.46,10.3631
10587.46,10.17782
10614.46,9.840116
10641.45,9.49773
10668.45,9.168211
10695.45,8.886455
10722.45,8.838469
10749.45,8.894457
10776.45,9.016658
10803.45,9.282376
10830.45,9.51643
10857.45,9.704438
10884.45,9.953801
10911.44,10.18775
10938.44,10.40872
10965.44,10.56915
10992.44,10.71345
11019.44,10.86295
11046.44,10.97432
11073.44,11.07282
11100.44,11.03499
11127.44,11.04758
11154.43,11.24848
11181.43,11.22565
11208.43,11.31701
11235.43,11.40483
11262.43,11.49198
11289.43,11.48468
11316.43,11.62408
11343.43,11.62169
11370.43,11.59725
11397.43,11.66352
11424.42,11.7141
11451.42,11.80908
11478.42,11.75382
11505.42,11.67037
11532.42,11.87832
11559.42,11.92749
11586.42,11.78973
11613.42,11.97402
11640.42,11.94844
11667.42,11.95688
11694.41,11.8402
11721.41,11.86279
11748.41,11.89187
11775.41,12.01255
11802.41,11.90782
11829.41,12.00799
11856.41,11.9044
11883.41,12.1431
11910.41,11.95403
11937.41,12.04419
11964.4,12.07803
11991.4,11.89561
11999.12,12.05703

File: H0002LDPE_6.csv
Wavenumber,Intensity
3999.706,1.449304
4026.705,1.453267
4053.704,1.461743
4080.703,1.470512
4107.702,1.469877
4134.701,1.475646
4161.7,1.476412
4188.699,1.487628
4215.698,1.498552
4242.697,1.505314
4269.696,1.512943
4296.694,1.516534
4323.693,1.515232
4350.692,1.517231
4377.691,1.51986
4404.69,1.5251
4431.689,1.55955
4458.688,1.650137
4485.688,1.770777
4512.687,1.917936
4539.686,2.080541
4566.685,2.256411
4593.683,2.378283
4620.682,2.456524
4647.681,2.500212
4674.68,2.46632
4701.679,2.556778
4728.678,2.487452
4755.677,2.429674
4782.676,2.324277
4809.675,2.259766
4836.674,2.149944
4863.673,2.02774
4890.672,2.0434
4917.671,2.064567
4944.67,2.046052
4971.669,1.933636
4998.668,2.0342
5025.667,2.086811
5052.666,2.094238
5079.665,2.072159
5106.664,2.057098
5133.663,2.087307
5160.662,2.048624
5187.661,2.039403
5214.66,2.047851
5241.659,2.066532
5268.658,2.079067
5295.657,2.06843
5322.656,2.096145
5349.655,2.032259
5376.654,1.935392
5403.652,1.859236
5430.651,1.766085
5457.65,1.745891
5484.649,1.708993
5511.648,1.707451
5538.647,1.707704
5565.646,1.713405
5592.646,1.761289
5619.645,1.701696
5646.644,1.642363
5673.643,1.612174
5700.642,1.656334
5727.641,1.649711
5754.639,1.609655
5781.638,1.609226
5808.637,1.609769
5835.636,1.639175
5862.635,1.798926
5889.634,2.348327
5916.633,2.864748
5943.632,3.745412
5970.631,4.456862
5997.63,5.070722
6024.629,5.536426
6051.628,5.872168
6078.627,6.096774
6105.626,6.231524
6132.625,6.378955
6159.624,6.562937
6186.623,6.725237
6213.622,6.82384
6240.621,6.893772
6267.62,6.929749
6294.619,6.953609
6321.618,6.957535
6348.617,6.895358
6375.616,6.749099
6402.615,6.659064
6429.614,6.473942
6456.613,6.202621
6483.612,5.459999
6510.61,5.75139
6537.609,5.906349
6564.608,5.989758
6591.607,6.065742
6618.606,6.060221
6645.605,5.992764
6672.604,5.874635
6699.604,5.705748
6726.603,5.500821
6753.602,5.298573
6780.601,5.048435
6807.6,4.664209
6834.599,4.287841
6861.598,4.090326
6888.597,3.839402
6915.596,3.612618
6942.594,3.280354
6969.593,3.186754
6996.592,3.131043
7023.591,2.985505
7050.59,2.920439
7077.589,2.983067
7104.588,3.335284
7131.587,3.631625
7158.586,3.060633
7185.585,2.818526
7212.584,3.754857
7239.583,4.599793
7266.582,5.354497
7293.581,6.07712
7320.58,6.725101
7347.579,7.0848
7374.578,7.422338
7401.577,7.670446
7428.576,7.769702
7455.575,7.826797
7482.574,7.850709
7509.573,7.857112
7536.572,7.832266
7563.571,7.787328
7590.57,7.736581
7617.569,7.657374
7644.568,7.560285
7671.566,7.473237
7698.565,7.405105
7725.564,7.346026
7752.563,7.280754
7779.563,7.192126
7806.562,7.123701
7833.561,7.041959
7860.56,6.922312
7887.559,6.767514
7914.558,6.572487
7941.557,6.349732
7968.556,6.070084
7995.555,5.762221
8022.554,5.399742
8049.553,4.991791
8076.552,4.544961
8103.551,4.037455
8130.55,3.476044
8157.548,2.93078
8184.547,2.43164
8211.546,2.206879
8238.545,2.195447
8265.544,2.279898
8292.543,2.499862
8319.542,2.828962
8346.541,3.209172
8373.54,3.629957
8400.539,3.953681
8427.538,4.0601
8454.537,4.542917
8481.536,5.005863
8508.535,5.381317
8535.534,5.555334
8562.533,5.262013
8589.532,5.801602
8616.531,6.56292
8643.53,7.147557
8670.529,7.504454
8697.528,7.814489
8724.527,8.197392
8751.525,8.551236
8778.524,8.798985
8805.523,8.964161
8832.522,9.082939
8859.521,9.120061
8886.521,9.154145
8913.52,9.160868
8940.519,9.17096
8967.518,9.172096
8994.517,9.192523
9021.516,9.222512
9048.515,9.260536
9075.514,9.270063
9102.513,9.280966
9129.512,9.289041
9156.511,9.256875
9183.51,9.249261
9210.509,9.229515
9237.508,9.214664
9264.507,9.164501
9291.506,9.141672
9318.504,9.176515
9345.503,9.169773
9372.502,9.133417
9399.501,9.076795
9426.5,9.054787
9453.499,8.971782
9480.498,8.908567
9507.497,8.878782
9534.496,8.831551
9561.495,8.775586
9588.494,8.74572
9615.493,8.753853
9642.492,8.855458
9669.491,8.968108
9696.49,9.076553
9723.489,9.185637
9750.488,9.279015
9777.487,9.348022
9804.486,9.331691
9831.485,9.35113
9858.484,9.4691
9885.482,9.545939
9912.481,9.679043
9939.48,9.7561
9966.479,9.837574
9993.479,9.88071
10020.48,9.950109
10047.48,9.982152
10074.48,10.03603
10101.47,10.04951
10128.47,10.10283
10155.47,10.09808
10182.47,10.12741
10209.47,10.15055
10236.47,10.1255
10263.47,10.18622
10290.47,10.16581
10317.47,10.11689
10344.47,10.13366
10371.46,10.10027
10398.46,10.0827
10425.46,10.05578
10452.46,10.01159
10479.46,9.973244
10506.46,9.857512
10533.46,9.747066
10560.46,9.609715
10587.46,9.386863
10614.46,9.132786
10641.45,8.716653
10668.45,8.339723
10695.45,8.101933
10722.45,8.006663
10749.45,8.048962
10776.45,8.170562
10803.45,8.479675
10830.45,8.698305
10857.45,8.947729
10884.45,9.197591
10911.44,9.472136
10938.44,9.678897
10965.44,9.840246
10992.44,9.995062
11019.44,10.14506
11046.44,10.16749
11073.44,10.27289
11100.44,10.3553
11127.44,10.38912
11154.43,10.49161
11181.43,10.45343
11208.43,10.61306
11235.43,10.72768
11262.43,10.83021
11289.43,10.64575
11316.43,10.87086
11343.43,10.85743
11370.43,10.95406
11397.43,10.89929
11424.42,11.0847
11451.42,11.06212
11478.42,10.99529
11505.42,11.00559
11532.42,11.18797
11559.42,11.15031
11586.42,11.00841
11613.42,11.10921
11640.42,11.20469
11667.42,11.21401
11694.41,11.10046
11721.41,11.1883
11748.41,11.28792
11775.41,11.2147
11802.41,11.145
11829.41,11.29188
11856.41,11.27281
11883.41,11.25599
11910.41,11.23798
11937.41,11.24075
11964.4,11.28734
11991.4,11.0438
11999.12,11.16581

File: H0003LDPE_1.csv
Wavenumber,Intensity
3999.706,3.21427
4026.705,3.236509
4053.704,3.250483
4080.703,3.261715
4107.702,3.270815
4134.701,3.280164
4161.7,3.29319
4188.699,3.310439
4215.698,3.351047
4242.697,3.372525
4269.696,3.392745
4296.694,3.410419
4323.693,3.404754
4350.692,3.416703
4377.691,3.416769
4404.69,3.427412
4431.689,3.46849
4458.688,3.587665
4485.688,3.731015
4512.687,3.900491
4539.686,4.096169
4566.685,4.321075
4593.683,4.479423
4620.682,4.579649
4647.681,4.632591
4674.68,4.609924
4701.679,4.716486
4728.678,4.651759
4755.677,4.593397
4782.676,4.485168
4809.675,4.415379
4836.674,4.295583
4863.673,4.147342
4890.672,4.16631
4917.671,4.187572
4944.67,4.163772
4971.669,4.038013
4998.668,4.144273
5025.667,4.208584
5052.666,4.221293
5079.665,4.201583
5106.664,4.190482
5133.663,4.223271
5160.662,4.183555
5187.661,4.175604
5214.66,4.176736
5241.659,4.197232
5268.658,4.209723
5295.657,4.204413
5322.656,4.229146
5349.655,4.161585
5376.654,4.048821
5403.652,3.952636
5430.651,3.857338
5457.65,3.81894
5484.649,3.77031
5511.648,3.772353
5538.647,3.775349
5565.646,3.784034
5592.646,3.831884
5619.645,3.762423
5646.644,3.684927
5673.643,3.654574
5700.642,3.708781
5727.641,3.703944
5754.639,3.650658
5781.638,3.642563
5808.637,3.65523
5835.636,3.686825
5862.635,3.852679
5889.634,4.453161
5916.633,5.024362
5943.632,6.082189
5970.631,6.891837
5997.63,7.56389
6024.629,8.088658
6051.628,8.462266
6078.627,8.719121
6105.626,8.874322
6132.625,9.053829
6159.624,9.279916
6186.623,9.47774
6213.622,9.600763
6240.621,9.684806
6267.62,9.718388
6294.619,9.749855
6321.618,9.755603
6348.617,9.686077
6375.616,9.52281
6402.615,9.413455
6429.614,9.202804
6456.613,8.901219
6483.612,8.079263
6510.61,8.3667
6537.609,8.522795
6564.608,8.605143
6591.607,8.683072
6618.606,8.666466
6645.605,8.584039
6672.604,8.454049
6699.604,8.253618
6726.603,8.016919
6753.602,7.790059
6780.601,7.505246
6807.6,7.090909
6834.599,6.671926
6861.598,6.449869
6888.597,6.167299
6915.596,5.906083
6942.594,5.551043
6969.593,5.435555
6996.592,5.368382
7023.591,5.205205
7050.59,5.120189
7077.589,5.171561
7104.588,5.551475
7131.587,5.857552
7158.586,5.257163
7185.585,4.983007
7212.584,5.963972
7239.583,6.861338
7266.582,7.686464
7293.581,8.498599
7320.58,9.242767
7347.579,9.644879
7374.578,10.07608
7401.577,10.37473
7428.576,10.51394
7455.575,10.57149
7482.574,10.60505
7509.573,10.58247
7536.572,10.55619
7563.571,10.50829
7590.57,10.43452
7617.569,10.3384
7644.568,10.21176
7671.566,10.09699
7698.565,10.02243
7725.564,9.941583
7752.563,9.842805
7779.563,9.740831
7806.562,9.647833
7833.561,9.540875
7860.56,9.389313
7887.559,9.202928
7914.558,8.974253
7941.557,8.707467
7968.556,8.396625
7995.555,8.048249
8022.554,7.644791
8049.553,7.184038
8076.552,6.700502
8103.551,6.164839
8130.55,5.571417
8157.548,4.994668
8184.547,4.493242
8211.546,4.245468
8238.545,4.224785
8265.544,4.284162
8292.543,4.521455
8319.542,4.835598
8346.541,5.193583
8373.54,5.596292
8400.539,5.903414
8427.538,6.037525
8454.537,6.562547
8481.536,7.039516
8508.535,7.411394
8535.534,7.607972
8562.533,7.328676
8589.532,7.870674
8616.531,8.670833
8643.53,9.287026
8670.529,9.671371
8697.528,10.02132
8724.527,10.46469
8751.525,10.86955
8778.524,11.16351
8805.523,11.34686
8832.522,11.45613
8859.521,11.5113
8886.521,11.54261
8913.52,11.54749
8940.519,11.52193
8967.518,11.52233
8994.517,11.53736
9021.516,11.55347
9048.515,11.58489
9075.514,11.56963
9102.513,11.59371
9129.512,11.57179
9156.511,11.55545
9183.51,11.49556
9210.509,11.46568
9237.508,11.41292
9264.507,11.38269
9291.506,11.34469
9318.504,11.32848
9345.503,11.34328
9372.502,11.25361
9399.501,11.19827
9426.5,11.13471
9453.499,11.03495
9480.498,10.97045
9507.497,10.9211
9534.496,10.84415
9561.495,10.77217
9588.494,10.71339
9615.493,10.73664
9642.492,10.81466
9669.491,10.94175
9696.49,11.02472
9723.489,11.14913
9750.488,11.26856
9777.487,11.28581
9804.486,11.31453
9831.485,11.31686
9858.484,11.42601
9885.482,11.55346
9912.481,11.63925
9939.48,11.73867
9966.479,11.83539
9993.479,11.88505
10020.48,11.89285
10047.48,11.96311
10074.48,12.04822
10101.47,12.08478
10128.47,12.11012
10155.47,12.07182
10182.47,12.11197
10209.47,12.10248
10236.47,12.07541
10263.47,12.08109
10290.47,12.04701
10317.47,11.99436
10344.47,11.98052
10371.46,11.98167
10398.46,11.91575
10425.46,11.93938
10452.46,11.81909
10479.46,11.7651
10506.46,11.68305
10533.46,11.5471
10560.46,11.29636
10587.46,11.08069
10614.46,10.73392
10641.45,10.38572
10668.45,9.97778
10695.45,9.634521
10722.45,9.47664
10749.45,9.595297
10776.45,9.758084
10803.45,9.947451
10830.45,10.2571
10857.45,10.49493
10884.45,10.78618
10911.44,10.98204
10938.44,11.21121
10965.44,11.47563
10992.44,11.61278
11019.44,11.70881
11046.44,11.81792
11073.44,11.91263
11100.44,11.94694
11127.44,11.9596
11154.43,12.00342
11181.43,12.10731
11208.43,12.19157
11235.43,12.35401
11262.43,12.33565
11289.43,12.43537
11316.43,12.3762
11343.43,12.50245
11370.43,12.46192
11397.43,12.51848
11424.42,12.56853
11451.42,12.66157
11478.42,12.73047
11505.42,12.65282
11532.42,12.75601
11559.42,12.79906
11586.42,12.84142
11613.42,12.84833
11640.42,12.78313
11667.42,12.69284
11694.41,12.74576
11721.41,12.75576
11748.41,12.87864
11775.41,12.8988
11802.41,12.70274
11829.41,12.72271
11856.41,12.64557
11883.41,12.68489
11910.41,12.70519
11937.41,12.71953
11964.4,12.7124
11991.4,12.72138
11999.12,12.80127

File: H0003LDPE_2.csv
Wavenumber,Intensity
3999.706,1.920663
4026.705,1.935005
4053.704,1.944164
4080.703,1.949353
4107.702,1.957656
4134.701,1.960476
4161.7,1.969311
4188.699,1.981627
4215.698,2.003981
4242.697,2.021362
4269.696,2.032957
4296.694,2.044391
4323.693,2.035165
4350.692,2.04683
4377.691,2.04443
4404.69,2.051993
4431.689,2.083006
4458.688,2.165585
4485.688,2.255833
4512.687,2.366547
4539.686,2.495298
4566.685,2.64025
4593.683,2.735709
4620.682,2.794251
4647.681,2.828656
4674.68,2.811022
4701.679,2.881024
4728.678,2.843759
4755.677,2.802228
4782.676,2.730865
4809.675,2.687269
4836.674,2.602643
4863.673,2.511786
4890.672,2.525629
4917.671,2.547072
4944.67,2.528568
4971.669,2.443617
4998.668,2.511832
5025.667,2.554318
5052.666,2.565703
5079.665,2.55159
5106.664,2.545407
5133.663,2.567271
5160.662,2.540244
5187.661,2.536887
5214.66,2.53879
5241.659,2.557486
5268.658,2.564983
5295.657,2.559026
5322.656,2.577414
5349.655,2.529689
5376.654,2.44963
5403.652,2.391742
5430.651,2.316343
5457.65,2.302627
5484.649,2.26756
5511.648,2.270328
5538.647,2.267751
5565.646,2.273617
5592.646,2.313281
5619.645,2.259937
5646.644,2.201647
5673.643,2.175504
5700.642,2.216074
5727.641,2.209972
5754.639,2.172873
5781.638,2.168007
5808.637,2.171452
5835.636,2.203204
5862.635,2.339805
5889.634,2.773808
5916.633,3.153182
5943.632,3.787208
5970.631,4.295711
5997.63,4.730515
6024.629,5.072613
6051.628,5.312724
6078.627,5.471587
6105.626,5.57194
6132.625,5.681944
6159.624,5.815208
6186.623,5.93733
6213.622,6.012079
6240.621,6.065019
6267.62,6.086195
6294.619,6.104012
6321.618,6.105942
6348.617,6.063319
6375.616,5.956445
6402.615,5.884804
6429.614,5.75449
6456.613,5.556165
6483.612,5.021105
6510.61,5.228232
6537.609,5.337789
6564.608,5.394833
6591.607,5.451447
6618.606,5.449689
6645.605,5.393986
6672.604,5.315841
6699.604,5.185252
6726.603,5.03378
6753.602,4.89087
6780.601,4.706293
6807.6,4.434235
6834.599,4.158206
6861.598,4.016003
6888.597,3.835598
6915.596,3.671467
6942.594,3.427564
6969.593,3.369321
6996.592,3.319667
7023.591,3.209123
7050.59,3.15833
7077.589,3.205003
7104.588,3.457268
7131.587,3.657526
7158.586,3.261594
7185.585,3.082236
7212.584,3.749414
7239.583,4.351346
7266.582,4.893995
7293.581,5.424497
7320.58,5.884769
7347.579,6.16888
7374.578,6.416827
7401.577,6.58748
7428.576,6.673449
7455.575,6.71079
7482.574,6.733027
7509.573,6.715248
7536.572,6.700507
7563.571,6.669802
7590.57,6.62701
7617.569,6.569697
7644.568,6.479117
7671.566,6.412689
7698.565,6.369712
7725.564,6.316891
7752.563,6.261294
7779.563,6.199922
7806.562,6.143283
7833.561,6.081073
7860.56,5.981756
7887.559,5.861697
7914.558,5.719062
7941.557,5.555146
7968.556,5.3606
7995.555,5.127818
8022.554,4.854573
8049.553,4.551421
8076.552,4.233936
8103.551,3.876105
8130.55,3.477457
8157.548,3.093566
8184.547,2.75229
8211.546,2.577368
8238.545,2.564914
8265.544,2.613753
8292.543,2.772872
8319.542,2.990374
8346.541,3.260459
8373.54,3.54999
8400.539,3.763637
8427.538,3.845415
8454.537,4.188807
8481.536,4.515563
8508.535,4.762115
8535.534,4.886744
8562.533,4.6875
8589.532,5.048014
8616.531,5.609813
8643.53,6.031543
8670.529,6.292295
8697.528,6.524399
8724.527,6.805484
8751.525,7.072227
8778.524,7.248623
8805.523,7.392454
8832.522,7.461781
8859.521,7.488256
8886.521,7.50628
8913.52,7.525942
8940.519,7.499079
8967.518,7.515476
8994.517,7.52862
9021.516,7.562491
9048.515,7.577593
9075.514,7.56784
9102.513,7.600985
9129.512,7.584581
9156.511,7.581486
9183.51,7.542834
9210.509,7.530175
9237.508,7.498117
9264.507,7.513371
9291.506,7.480159
9318.504,7.483913
9345.503,7.483562
9372.502,7.434313
9399.501,7.406624
9426.5,7.358166
9453.499,7.310318
9480.498,7.273205
9507.497,7.254141
9534.496,7.205576
9561.495,7.157514
9588.494,7.128167
9615.493,7.144647
9642.492,7.211957
9669.491,7.30071
9696.49,7.371469
9723.489,7.458439
9750.488,7.560163
9777.487,7.56678
9804.486,7.595001
9831.485,7.583156
9858.484,7.64214
9885.482,7.73799
9912.481,7.803774
9939.48,7.88924
9966.479,7.986552
9993.479,7.998178
10020.48,8.025845
10047.48,8.054498
10074.48,8.116853
10101.47,8.129799
10128.47,8.184593
10155.47,8.169027
10182.47,8.179575
10209.47,8.189462
10236.47,8.200163
10263.47,8.228179
10290.47,8.172845
10317.47,8.160397
10344.47,8.13695
10371.46,8.159968
10398.46,8.14734
10425.46,8.149585
10452.46,8.064935
10479.46,8.074963
10506.46,8.015852
10533.46,7.928155
10560.46,7.766757
10587.46,7.604457
10614.46,7.345136
10641.45,7.110998
10668.45,6.832075
10695.45,6.624258
10722.45,6.593405
10749.45,6.572045
10776.45,6.719016
10803.45,6.890086
10830.45,7.07778
10857.45,7.304565
10884.45,7.527946
10911.44,7.623145
10938.44,7.856964
10965.44,7.96637
10992.44,8.126214
11019.44,8.242476
11046.44,8.252019
11073.44,8.394814
11100.44,8.385415
11127.44,8.464743
11154.43,8.485724
11181.43,8.501017
11208.43,8.64369
11235.43,8.676262
11262.43,8.760493
11289.43,8.736685
11316.43,8.804509
11343.43,8.81653
11370.43,8.828001
11397.43,8.930279
11424.42,8.951328
11451.42,8.979709
11478.42,9.071877
11505.42,9.080192
11532.42,9.060954
11559.42,9.077969
11586.42,9.128562
11613.42,9.068368
11640.42,9.16997
11667.42,8.992638
11694.41,9.179313
11721.41,9.031961
11748.41,9.132889
11775.41,9.2482
11802.41,8.986103
11829.41,9.226423
11856.41,9.11783
11883.41,9.073305
11910.41,9.171577
11937.41,8.977797
11964.4,9.113135
11991.4,8.944483
11999.12,9.118388