Folder: nir_corr_po/Data/NIR (part 10)

File: S0024LDPE_1.csv
Wavenumber,Intensity
3999.706,3.228478
4026.705,3.24648
4053.704,3.263449
4080.703,3.272527
4107.702,3.27961
4134.701,3.28566
4161.7,3.301736
4188.699,3.312819
4215.698,3.351266
4242.697,3.373069
4269.696,3.39155
4296.694,3.408815
4323.693,3.389371
4350.692,3.416303
4377.691,3.420153
4404.69,3.436877
4431.689,3.516643
4458.688,3.68368
4485.688,3.858138
4512.687,4.062344
4539.686,4.275783
4566.685,4.509838
4593.683,4.671791
4620.682,4.771808
4647.681,4.83404
4674.68,4.80408
4701.679,4.91435
4728.678,4.846478
4755.677,4.791181
4782.676,4.671378
4809.675,4.598019
4836.674,4.465347
4863.673,4.307641
4890.672,4.334094
4917.671,4.360765
4944.67,4.333484
4971.669,4.189043
4998.668,4.311137
5025.667,4.384968
5052.666,4.399578
5079.665,4.37515
5106.664,4.359262
5133.663,4.397815
5160.662,4.351848
5187.661,4.34651
5214.66,4.348625
5241.659,4.372777
5268.658,4.392863
5295.657,4.378226
5322.656,4.409842
5349.655,4.332682
5376.654,4.214422
5403.652,4.089797
5430.651,3.961072
5457.65,3.917156
5484.649,3.852705
5511.648,3.850407
5538.647,3.853671
5565.646,3.865609
5592.646,3.936089
5619.645,3.83613
5646.644,3.712248
5673.643,3.648991
5700.642,3.746052
5727.641,3.73516
5754.639,3.641579
5781.638,3.623751
5808.637,3.643915
5835.636,3.706573
5862.635,3.965659
5889.634,4.69329
5916.633,5.304555
5943.632,6.363371
5970.631,7.182406
5997.63,7.866827
6024.629,8.406559
6051.628,8.793458
6078.627,9.046178
6105.626,9.170936
6132.625,9.380523
6159.624,9.615184
6186.623,9.824354
6213.622,9.949686
6240.621,10.0327
6267.62,10.0765
6294.619,10.10542
6321.618,10.11193
6348.617,10.04772
6375.616,9.882983
6402.615,9.773781
6429.614,9.56543
6456.613,9.254214
6483.612,8.411419
6510.61,8.724007
6537.609,8.885638
6564.608,8.98361
6591.607,9.063107
6618.606,9.047716
6645.605,8.96777
6672.604,8.833376
6699.604,8.637207
6726.603,8.396149
6753.602,8.166821
6780.601,7.876487
6807.6,7.458916
6834.599,7.025574
6861.598,6.798539
6888.597,6.506915
6915.596,6.246603
6942.594,5.867831
6969.593,5.753039
6996.592,5.677894
7023.591,5.512671
7050.59,5.429073
7077.589,5.489819
7104.588,5.912014
7131.587,6.21553
7158.586,5.572928
7185.585,5.287561
7212.584,6.345748
7239.583,7.293756
7266.582,8.141518
7293.581,8.985255
7320.58,9.719317
7347.579,10.16424
7374.578,10.5975
7401.577,10.89273
7428.576,11.03148
7455.575,11.10645
7482.574,11.14099
7509.573,11.12688
7536.572,11.09304
7563.571,11.04447
7590.57,10.97113
7617.569,10.87345
7644.568,10.73765
7671.566,10.62515
7698.565,10.55568
7725.564,10.45428
7752.563,10.36978
7779.563,10.26993
7806.562,10.17595
7833.561,10.05465
7860.56,9.903543
7887.559,9.7121
7914.558,9.479435
7941.557,9.213173
7968.556,8.900565
7995.555,8.530838
8022.554,8.110834
8049.553,7.642884
8076.552,7.131194
8103.551,6.567589
8130.55,5.935436
8157.548,5.304023
8184.547,4.730316
8211.546,4.419761
8238.545,4.403841
8265.544,4.493847
8292.543,4.775537
8319.542,5.138587
8346.541,5.562528
8373.54,6.012511
8400.539,6.337796
8427.538,6.488514
8454.537,7.03698
8481.536,7.540978
8508.535,7.941599
8535.534,8.147792
8562.533,7.833371
8589.532,8.412925
8616.531,9.26874
8643.53,9.934986
8670.529,10.31185
8697.528,10.69677
8724.527,11.153
8751.525,11.58084
8778.524,11.90512
8805.523,12.11508
8832.522,12.22942
8859.521,12.28959
8886.521,12.31839
8913.52,12.31925
8940.519,12.31426
8967.518,12.31389
8994.517,12.33337
9021.516,12.35699
9048.515,12.40111
9075.514,12.38245
9102.513,12.39725
9129.512,12.38036
9156.511,12.37709
9183.51,12.31335
9210.509,12.27694
9237.508,12.22738
9264.507,12.21236
9291.506,12.18057
9318.504,12.16763
9345.503,12.15367
9372.502,12.09961
9399.501,12.01474
9426.5,11.94299
9453.499,11.8623
9480.498,11.78236
9507.497,11.71942
9534.496,11.67279
9561.495,11.57502
9588.494,11.53211
9615.493,11.55673
9642.492,11.65978
9669.491,11.7906
9696.49,11.91574
9723.489,12.02916
9750.488,12.17405
9777.487,12.19065
9804.486,12.23554
9831.485,12.23541
9858.484,12.35574
9885.482,12.50871
9912.481,12.6084
9939.48,12.74174
9966.479,12.8507
9993.479,12.92927
10020.48,12.9568
10047.48,13.00614
10074.48,13.0793
10101.47,13.15219
10128.47,13.16199
10155.47,13.13454
10182.47,13.19515
10209.47,13.1986
10236.47,13.17926
10263.47,13.18358
10290.47,13.1587
10317.47,13.12464
10344.47,13.10936
10371.46,13.08368
10398.46,13.06713
10425.46,13.03926
10452.46,12.96193
10479.46,12.91321
10506.46,12.77947
10533.46,12.62946
10560.46,12.42657
10587.46,12.14223
10614.46,11.75914
10641.45,11.3868
10668.45,10.9601
10695.45,10.58976
10722.45,10.54734
10749.45,10.56664
10776.45,10.74438
10803.45,10.97744
10830.45,11.32057
10857.45,11.55824
10884.45,11.93077
10911.44,12.09718
10938.44,12.42729
10965.44,12.67492
10992.44,12.78434
11019.44,13.00423
11046.44,13.08863
11073.44,13.21843
11100.44,13.24278
11127.44,13.3413
11154.43,13.44125
11181.43,13.40417
11208.43,13.6201
11235.43,13.68419
11262.43,13.79291
11289.43,13.89431
11316.43,13.78826
11343.43,13.94568
11370.43,13.93798
11397.43,14.05822
11424.42,14.08913
11451.42,14.20875
11478.42,14.23583
11505.42,14.20146
11532.42,14.26706
11559.42,14.44504
11586.42,14.42696
11613.42,14.35533
11640.42,14.41007
11667.42,14.21159
11694.41,14.45817
11721.41,14.35692
11748.41,14.34915
11775.41,14.37874
11802.41,14.28261
11829.41,14.33091
11856.41,14.35086
11883.41,14.27442
11910.41,14.3407
11937.41,14.35373
11964.4,14.25199
11991.4,14.28609
11999.12,14.35818

File: S0024LDPE_2.csv
Wavenumber,Intensity
3999.706,3.297653
4026.705,3.315172
4053.704,3.329686
4080.703,3.343613
4107.702,3.346093
4134.701,3.355841
4161.7,3.364346
4188.699,3.383162
4215.698,3.418608
4242.697,3.44408
4269.696,3.459299
4296.694,3.474422
4323.693,3.458188
4350.692,3.479251
4377.691,3.482106
4404.69,3.496431
4431.689,3.579609
4458.688,3.769691
4485.688,3.97739
4512.687,4.223357
4539.686,4.482238
4566.685,4.767154
4593.683,4.963681
4620.682,5.085471
4647.681,5.159191
4674.68,5.119164
4701.679,5.252352
4728.678,5.162024
4755.677,5.088974
4782.676,4.939708
4809.675,4.851194
4836.674,4.682325
4863.673,4.485568
4890.672,4.513972
4917.671,4.545659
4944.67,4.511262
4971.669,4.335616
4998.668,4.482343
5025.667,4.566869
5052.666,4.586285
5079.665,4.553926
5106.664,4.534033
5133.663,4.579184
5160.662,4.525757
5187.661,4.514363
5214.66,4.518161
5241.659,4.548935
5268.658,4.560731
5295.657,4.550753
5322.656,4.585936
5349.655,4.488957
5376.654,4.333108
5403.652,4.198597
5430.651,4.038698
5457.65,3.991334
5484.649,3.91843
5511.648,3.920899
5538.647,3.922961
5565.646,3.930193
5592.646,4.008345
5619.645,3.895818
5646.644,3.765302
5673.643,3.699906
5700.642,3.796517
5727.641,3.787825
5754.639,3.69315
5781.638,3.680603
5808.637,3.692671
5835.636,3.752936
5862.635,4.03835
5889.634,4.900526
5916.633,5.654677
5943.632,6.97713
5970.631,7.989615
5997.63,8.830603
6024.629,9.484439
6051.628,9.948604
6078.627,10.25486
6105.626,10.40701
6132.625,10.64908
6159.624,10.93268
6186.623,11.17611
6213.622,11.31983
6240.621,11.41839
6267.62,11.46322
6294.619,11.49889
6321.618,11.50301
6348.617,11.42063
6375.616,11.22797
6402.615,11.09101
6429.614,10.8434
6456.613,10.47536
6483.612,9.466792
6510.61,9.832883
6537.609,10.0227
6564.608,10.12915
6591.607,10.22462
6618.606,10.21038
6645.605,10.10598
6672.604,9.943121
6699.604,9.709023
6726.603,9.415772
6753.602,9.131082
6780.601,8.783569
6807.6,8.262862
6834.599,7.746706
6861.598,7.465414
6888.597,7.114624
6915.596,6.782035
6942.594,6.327744
6969.593,6.182264
6996.592,6.095621
7023.591,5.886024
7050.59,5.785477
7077.589,5.862474
7104.588,6.362177
7131.587,6.749696
7158.586,5.962461
7185.585,5.599998
7212.584,6.886114
7239.583,8.037852
7266.582,9.058325
7293.581,10.04061
7320.58,10.93223
7347.579,11.42239
7374.578,11.93469
7401.577,12.27624
7428.576,12.4385
7455.575,12.51873
7482.574,12.54873
7509.573,12.52968
7536.572,12.49744
7563.571,12.42942
7590.57,12.35342
7617.569,12.23125
7644.568,12.0797
7671.566,11.94451
7698.565,11.86003
7725.564,11.74476
7752.563,11.64331
7779.563,11.5207
7806.562,11.41013
7833.561,11.27853
7860.56,11.09152
7887.559,10.86666
7914.558,10.59836
7941.557,10.28008
7968.556,9.900667
7995.555,9.474858
8022.554,8.979635
8049.553,8.416263
8076.552,7.790658
8103.551,7.118799
8130.55,6.349007
8157.548,5.586152
8184.547,4.914239
8211.546,4.548628
8238.545,4.52056
8265.544,4.619558
8292.543,4.950899
8319.542,5.379284
8346.541,5.886915
8373.54,6.424629
8400.539,6.819979
8427.538,6.994861
8454.537,7.652288
8481.536,8.258018
8508.535,8.734846
8535.534,8.961036
8562.533,8.606073
8589.532,9.281876
8616.531,10.26782
8643.53,11.03993
8670.529,11.49711
8697.528,11.91218
8724.527,12.44282
8751.525,12.9252
8778.524,13.27199
8805.523,13.50564
8832.522,13.62747
8859.521,13.70386
8886.521,13.7125
8913.52,13.72868
8940.519,13.70071
8967.518,13.6989
8994.517,13.71305
9021.516,13.74566
9048.515,13.77355
9075.514,13.77201
9102.513,13.78678
9129.512,13.75755
9156.511,13.73944
9183.51,13.68418
9210.509,13.6284
9237.508,13.58807
9264.507,13.55082
9291.506,13.53108
9318.504,13.50777
9345.503,13.48515
9372.502,13.41335
9399.501,13.34245
9426.5,13.26192
9453.499,13.14996
9480.498,13.0727
9507.497,12.99718
9534.496,12.92459
9561.495,12.85382
9588.494,12.7737
9615.493,12.80112
9642.492,12.9155
9669.491,13.05456
9696.49,13.17364
9723.489,13.31222
9750.488,13.44173
9777.487,13.49541
9804.486,13.49446
9831.485,13.52888
9858.484,13.64264
9885.482,13.8233
9912.481,13.94306
9939.48,14.06993
9966.479,14.17752
9993.479,14.24658
10020.48,14.30033
10047.48,14.34581
10074.48,14.44735
10101.47,14.48948
10128.47,14.49677
10155.47,14.51029
10182.47,14.52444
10209.47,14.51856
10236.47,14.52042
10263.47,14.50459
10290.47,14.48192
10317.47,14.4454
10344.47,14.42785
10371.46,14.42136
10398.46,14.37742
10425.46,14.36834
10452.46,14.25875
10479.46,14.19913
10506.46,14.06894
10533.46,13.90058
10560.46,13.6488
10587.46,13.35304
10614.46,12.96961
10641.45,12.49668
10668.45,12.01128
10695.45,11.6697
10722.45,11.522
10749.45,11.61082
10776.45,11.79931
10803.45,12.05788
10830.45,12.41569
10857.45,12.75958
10884.45,13.06888
10911.44,13.33022
10938.44,13.62017
10965.44,13.89851
10992.44,14.08944
11019.44,14.31
11046.44,14.32343
11073.44,14.49391
11100.44,14.5326
11127.44,14.64113
11154.43,14.68052
11181.43,14.69769
11208.43,14.89189
11235.43,14.97065
11262.43,15.07606
11289.43,15.08095
11316.43,15.07752
11343.43,15.28673
11370.43,15.23581
11397.43,15.38422
11424.42,15.42952
11451.42,15.53495
11478.42,15.52194
11505.42,15.49306
11532.42,15.58192
11559.42,15.73872
11586.42,15.7326
11613.42,15.67876
11640.42,15.70534
11667.42,15.53747
11694.41,15.68681
11721.41,15.71244
11748.41,15.78799
11775.41,15.71797
11802.41,15.55497
11829.41,15.64607
11856.41,15.52198
11883.41,15.56168
11910.41,15.51607
11937.41,15.52379
11964.4,15.46769
11991.4,15.59382
11999.12,15.57014

File: S0024LDPE_3.csv
Wavenumber,Intensity
3999.706,3.582233
4026.705,3.601472
4053.704,3.616914
4080.703,3.625321
4107.702,3.633873
4134.701,3.64098
4161.7,3.655867
4188.699,3.670354
4215.698,3.715629
4242.697,3.739429
4269.696,3.763805
4296.694,3.775801
4323.693,3.753928
4350.692,3.784693
4377.691,3.79413
4404.69,3.813967
4431.689,3.953909
4458.688,4.230513
4485.688,4.515502
4512.687,4.839248
4539.686,5.157153
4566.685,5.498624
4593.683,5.726678
4620.682,5.866426
4647.681,5.944514
4674.68,5.894956
4701.679,6.050956
4728.678,5.94929
4755.677,5.869563
4782.676,5.69575
4809.675,5.586456
4836.674,5.385895
4863.673,5.144981
4890.672,5.178993
4917.671,5.21951
4944.67,5.176787
4971.669,4.953791
4998.668,5.143045
5025.667,5.246706
5052.666,5.265895
5079.665,5.225324
5106.664,5.197485
5133.663,5.254926
5160.662,5.186001
5187.661,5.168528
5214.66,5.16937
5241.659,5.202119
5268.658,5.225146
5295.657,5.205957
5322.656,5.251664
5349.655,5.135854
5376.654,4.94349
5403.652,4.759894
5430.651,4.55461
5457.65,4.483735
5484.649,4.379303
5511.648,4.381412
5538.647,4.383392
5565.646,4.398287
5592.646,4.507263
5619.645,4.346102
5646.644,4.152377
5673.643,4.046796
5700.642,4.200928
5727.641,4.184804
5754.639,4.028516
5781.638,4.006478
5808.637,4.026389
5835.636,4.12232
5862.635,4.54029
5889.634,5.615679
5916.633,6.460203
5943.632,7.820677
5970.631,8.803042
5997.63,9.589397
6024.629,10.19093
6051.628,10.61073
6078.627,10.88029
6105.626,11.01302
6132.625,11.23108
6159.624,11.48403
6186.623,11.69111
6213.622,11.82184
6240.621,11.9027
6267.62,11.94344
6294.619,11.9768
6321.618,11.98234
6348.617,11.90718
6375.616,11.73413
6402.615,11.61522
6429.614,11.38945
6456.613,11.05876
6483.612,10.14758
6510.61,10.48413
6537.609,10.65752
6564.608,10.75195
6591.607,10.84137
6618.606,10.82149
6645.605,10.7299
6672.604,10.58251
6699.604,10.36688
6726.603,10.09764
6753.602,9.841815
6780.601,9.517061
6807.6,9.030688
6834.599,8.530766
6861.598,8.261893
6888.597,7.914021
6915.596,7.588184
6942.594,7.11145
6969.593,6.968613
6996.592,6.867839
7023.591,6.652889
7050.59,6.539456
7077.589,6.618838
7104.588,7.144586
7131.587,7.530211
7158.586,6.720365
7185.585,6.336706
7212.584,7.677414
7239.583,8.804776
7266.582,9.761777
7293.581,10.67985
7320.58,11.45637
7347.579,11.91064
7374.578,12.34945
7401.577,12.64835
7428.576,12.77809
7455.575,12.8566
7482.574,12.88284
7509.573,12.86596
7536.572,12.8358
7563.571,12.7793
7590.57,12.70387
7617.569,12.60638
7644.568,12.46503
7671.566,12.34645
7698.565,12.27083
7725.564,12.17298
7752.563,12.08279
7779.563,11.97143
7806.562,11.87243
7833.561,11.75194
7860.56,11.58989
7887.559,11.38877
7914.558,11.13828
7941.557,10.8498
7968.556,10.51113
7995.555,10.12179
8022.554,9.6576
8049.553,9.131582
8076.552,8.5465
8103.551,7.880346
8130.55,7.114384
8157.548,6.296762
8184.547,5.54145
8211.546,5.115422
8238.545,5.081197
8265.544,5.207311
8292.543,5.587368
8319.542,6.076412
8346.541,6.609951
8373.54,7.184048
8400.539,7.581811
8427.538,7.752311
8454.537,8.399194
8481.536,8.98421
8508.535,9.419847
8535.534,9.635219
8562.533,9.307639
8589.532,9.932665
8616.531,10.86513
8643.53,11.54737
8670.529,11.95169
8697.528,12.33834
8724.527,12.80499
8751.525,13.20303
8778.524,13.52237
8805.523,13.73333
8832.522,13.85683
8859.521,13.89821
8886.521,13.91703
8913.52,13.92708
8940.519,13.9089
8967.518,13.919
8994.517,13.91888
9021.516,13.9421
9048.515,13.97804
9075.514,13.96518
9102.513,13.98074
9129.512,13.95
9156.511,13.93861
9183.51,13.87991
9210.509,13.85594
9237.508,13.79713
9264.507,13.78049
9291.506,13.74734
9318.504,13.73485
9345.503,13.72008
9372.502,13.64859
9399.501,13.59594
9426.5,13.50265
9453.499,13.42033
9480.498,13.34005
9507.497,13.2802
9534.496,13.24217
9561.495,13.14087
9588.494,13.08219
9615.493,13.11893
9642.492,13.20876
9669.491,13.35223
9696.49,13.45489
9723.489,13.58184
9750.488,13.69197
9777.487,13.73347
9804.486,13.75833
9831.485,13.7766
9858.484,13.88589
9885.482,14.04074
9912.481,14.15675
9939.48,14.26906
9966.479,14.3682
9993.479,14.44407
10020.48,14.47494
10047.48,14.53024
10074.48,14.60621
10101.47,14.64186
10128.47,14.65688
10155.47,14.64646
10182.47,14.66436
10209.47,14.68091
10236.47,14.69025
10263.47,14.70069
10290.47,14.64777
10317.47,14.61472
10344.47,14.58378
10371.46,14.59514
10398.46,14.52458
10425.46,14.55802
10452.46,14.43372
10479.46,14.38398
10506.46,14.29018
10533.46,14.14325
10560.46,13.90141
10587.46,13.6386
10614.46,13.27954
10641.45,12.88635
10668.45,12.46178
10695.45,12.13646
10722.45,11.98159
10749.45,12.02308
10776.45,12.22319
10803.45,12.47607
10830.45,12.76806
10857.45,13.06121
10884.45,13.42877
10911.44,13.62471
10938.44,13.90268
10965.44,14.15699
10992.44,14.31212
11019.44,14.4293
11046.44,14.52167
11073.44,14.70984
11100.44,14.76049
11127.44,14.76
11154.43,14.79969
11181.43,14.89312
11208.43,15.01537
11235.43,15.1077
11262.43,15.22383
11289.43,15.3159
11316.43,15.27766
11343.43,15.43363
11370.43,15.35653
11397.43,15.49423
11424.42,15.53814
11451.42,15.65197
11478.42,15.68415
11505.42,15.66779
11532.42,15.71112
11559.42,15.81565
11586.42,15.77801
11613.42,15.80241
11640.42,15.74974
11667.42,15.76275
11694.41,15.92403
11721.41,15.85824
11748.41,15.85175
11775.41,15.86989
11802.41,15.70706
11829.41,15.79732
11856.41,15.64554
11883.41,15.57458
11910.41,15.54423
11937.41,15.6455
11964.4,15.56174
11991.4,15.46952
11999.12,15.61143

File: S0024LDPE_4.csv
Wavenumber,Intensity
3999.706,1.227147
4026.705,1.229859
4053.704,1.235289
4080.703,1.242578
4107.702,1.23848
4134.701,1.247562
4161.7,1.244436
4188.699,1.260084
4215.698,1.269839
4242.697,1.276753
4269.696,1.283325
4296.694,1.29493
4323.693,1.284496
4350.692,1.29237
4377.691,1.296688
4404.69,1.307316
4431.689,1.409361
4458.688,1.617659
4485.688,1.831142
4512.687,2.077676
4539.686,2.310507
4566.685,2.56246
4593.683,2.731883
4620.682,2.830209
4647.681,2.893072
4674.68,2.848673
4701.679,2.964983
4728.678,2.870985
4755.677,2.802098
4782.676,2.662925
4809.675,2.573598
4836.674,2.418016
4863.673,2.236699
4890.672,2.253084
4917.671,2.281124
4944.67,2.251728
4971.669,2.079867
4998.668,2.224832
5025.667,2.304118
5052.666,2.315857
5079.665,2.282559
5106.664,2.259073
5133.663,2.296358
5160.662,2.244436
5187.661,2.228702
5214.66,2.234387
5241.659,2.25894
5268.658,2.271894
5295.657,2.25671
5322.656,2.291171
5349.655,2.197979
5376.654,2.050608
5403.652,1.913961
5430.651,1.752928
5457.65,1.710722
5484.649,1.637225
5511.648,1.632377
5538.647,1.630233
5565.646,1.645328
5592.646,1.725282
5619.645,1.6106
5646.644,1.471968
5673.643,1.398244
5700.642,1.499892
5727.641,1.492017
5754.639,1.383491
5781.638,1.365478
5808.637,1.379654
5835.636,1.451028
5862.635,1.750539
5889.634,2.559726
5916.633,3.232203
5943.632,4.354335
5970.631,5.208175
5997.63,5.903582
6024.629,6.445625
6051.628,6.829565
6078.627,7.094169
6105.626,7.219583
6132.625,7.428638
6159.624,7.664426
6186.623,7.863776
6213.622,7.985207
6240.621,8.069129
6267.62,8.115695
6294.619,8.147314
6321.618,8.15125
6348.617,8.07403
6375.616,7.906034
6402.615,7.799885
6429.614,7.583643
6456.613,7.269688
6483.612,6.418681
6510.61,6.72349
6537.609,6.894708
6564.608,6.98594
6591.607,7.068213
6618.606,7.053252
6645.605,6.964098
6672.604,6.820415
6699.604,6.622766
6726.603,6.38348
6753.602,6.141745
6780.601,5.84994
6807.6,5.418402
6834.599,4.979575
6861.598,4.743102
6888.597,4.444543
6915.596,4.173326
6942.594,3.77691
6969.593,3.658602
6996.592,3.579008
7023.591,3.402694
7050.59,3.31364
7077.589,3.387666
7104.588,3.816889
7131.587,4.149405
7158.586,3.469474
7185.585,3.160058
7212.584,4.261886
7239.583,5.231369
7266.582,6.083246
7293.581,6.924412
7320.58,7.664942
7347.579,8.092688
7374.578,8.525928
7401.577,8.841706
7428.576,8.964097
7455.575,9.042209
7482.574,9.074967
7509.573,9.064144
7536.572,9.029745
7563.571,8.966558
7590.57,8.898127
7617.569,8.795238
7644.568,8.665295
7671.566,8.550033
7698.565,8.462887
7725.564,8.380077
7752.563,8.281953
7779.563,8.174421
7806.562,8.079936
7833.561,7.96208
7860.56,7.808564
7887.559,7.615679
7914.558,7.382994
7941.557,7.101811
7968.556,6.780414
7995.555,6.416894
8022.554,6.001191
8049.553,5.526071
8076.552,5.000543
8103.551,4.42355
8130.55,3.756705
8157.548,3.099205
8184.547,2.492492
8211.546,2.172431
8238.545,2.151645
8265.544,2.237592
8292.543,2.532017
8319.542,2.927322
8346.541,3.358245
8373.54,3.83401
8400.539,4.179153
8427.538,4.316972
8454.537,4.869429
8481.536,5.38576
8508.535,5.798194
8535.534,5.999377
8562.533,5.69403
8589.532,6.260584
8616.531,7.109492
8643.53,7.771224
8670.529,8.169808
8697.528,8.527242
8724.527,8.989418
8751.525,9.416664
8778.524,9.737285
8805.523,9.933352
8832.522,10.05951
8859.521,10.11749
8886.521,10.15726
8913.52,10.14406
8940.519,10.13232
8967.518,10.12878
8994.517,10.15349
9021.516,10.15713
9048.515,10.17566
9075.514,10.21289
9102.513,10.20326
9129.512,10.18161
9156.511,10.14983
9183.51,10.11417
9210.509,10.07752
9237.508,10.03582
9264.507,9.99351
9291.506,9.948954
9318.504,9.957943
9345.503,9.933308
9372.502,9.875668
9399.501,9.800344
9426.5,9.745165
9453.499,9.632507
9480.498,9.564024
9507.497,9.494847
9534.496,9.419809
9561.495,9.3557
9588.494,9.30579
9615.493,9.316908
9642.492,9.415975
9669.491,9.539306
9696.49,9.664824
9723.489,9.778051
9750.488,9.896486
9777.487,9.972329
9804.486,9.963398
9831.485,9.965394
9858.484,10.11818
9885.482,10.25337
9912.481,10.38916
9939.48,10.50483
9966.479,10.61116
9993.479,10.63481
10020.48,10.73084
10047.48,10.78366
10074.48,10.80753
10101.47,10.86617
10128.47,10.90195
10155.47,10.90609
10182.47,10.91509
10209.47,10.92182
10236.47,10.91695
10263.47,10.90618
10290.47,10.89399
10317.47,10.8566
10344.47,10.87486
10371.46,10.83024
10398.46,10.78806
10425.46,10.77483
10452.46,10.67014
10479.46,10.62741
10506.46,10.49811
10533.46,10.33643
10560.46,10.11999
10587.46,9.842071
10614.46,9.529183
10641.45,9.044739
10668.45,8.641745
10695.45,8.351898
10722.45,8.250371
10749.45,8.328018
10776.45,8.490935
10803.45,8.767055
10830.45,9.080415
10857.45,9.265637
10884.45,9.63014
10911.44,9.860262
10938.44,10.12075
10965.44,10.40432
10992.44,10.55488
11019.44,10.66361
11046.44,10.76503
11073.44,10.90673
11100.44,10.93898
11127.44,10.96812
11154.43,11.13654
11181.43,11.14924
11208.43,11.32995
11235.43,11.38278
11262.43,11.54904
11289.43,11.50518
11316.43,11.61863
11343.43,11.72419
11370.43,11.72403
11397.43,11.73199
11424.42,11.84689
11451.42,11.86829
11478.42,11.74118
11505.42,11.85746
11532.42,11.97849
11559.42,11.98261
11586.42,11.96665
11613.42,12.01373
11640.42,12.04739
11667.42,12.0585
11694.41,12.03087
11721.41,12.06424
11748.41,12.03918
11775.41,11.97051
11802.41,11.94855
11829.41,11.93669
11856.41,11.92114
11883.41,11.90016
11910.41,11.66689
11937.41,11.74714
11964.4,11.7459
11991.4,11.625
11999.12,11.51933