Folder: nir_corr_po/Data/NIR (part 7)

File: N1473LDPE_1.csv
Wavenumber,Intensity
3999.706,2.930411
4026.705,2.950227
4053.704,2.956068
4080.703,2.972588
4107.702,2.9745
4134.701,2.981
4161.7,2.993064
4188.699,3.006167
4215.698,3.045048
4242.697,3.065306
4269.696,3.085961
4296.694,3.103636
4323.693,3.07577
4350.692,3.103262
4377.691,3.115782
4404.69,3.140153
4431.689,3.222939
4458.688,3.356844
4485.688,3.501511
4512.687,3.662115
4539.686,3.841705
4566.685,4.04407
4593.683,4.185546
4620.682,4.273933
4647.681,4.325277
4674.68,4.301888
4701.679,4.404995
4728.678,4.350079
4755.677,4.296039
4782.676,4.19659
4809.675,4.137176
4836.674,4.025168
4863.673,3.892028
4890.672,3.913171
4917.671,3.937056
4944.67,3.914654
4971.669,3.795617
4998.668,3.901078
5025.667,3.959055
5052.666,3.972364
5079.665,3.956121
5106.664,3.948674
5133.663,3.976979
5160.662,3.942525
5187.661,3.938193
5214.66,3.939955
5241.659,3.961349
5268.658,3.972158
5295.657,3.965327
5322.656,3.994128
5349.655,3.928105
5376.654,3.824418
5403.652,3.728257
5430.651,3.619499
5457.65,3.586225
5484.649,3.536269
5511.648,3.538468
5538.647,3.538087
5565.646,3.550396
5592.646,3.60687
5619.645,3.524391
5646.644,3.420561
5673.643,3.358422
5700.642,3.453284
5727.641,3.444884
5754.639,3.345819
5781.638,3.317006
5808.637,3.347098
5835.636,3.415417
5862.635,3.64379
5889.634,4.265406
5916.633,4.81701
5943.632,5.799105
5970.631,6.56524
5997.63,7.211748
6024.629,7.716304
6051.628,8.090147
6078.627,8.347122
6105.626,8.509044
6132.625,8.67819
6159.624,8.889432
6186.623,9.090482
6213.622,9.212582
6240.621,9.294201
6267.62,9.335638
6294.619,9.362725
6321.618,9.374702
6348.617,9.308848
6375.616,9.153223
6402.615,9.043938
6429.614,8.852068
6456.613,8.557617
6483.612,7.752412
6510.61,8.046881
6537.609,8.200141
6564.608,8.289514
6591.607,8.371048
6618.606,8.361635
6645.605,8.283588
6672.604,8.161254
6699.604,7.973197
6726.603,7.743482
6753.602,7.526747
6780.601,7.249482
6807.6,6.847839
6834.599,6.446054
6861.598,6.232687
6888.597,5.957335
6915.596,5.714481
6942.594,5.362295
6969.593,5.258583
6996.592,5.19022
7023.591,5.032774
7050.59,4.954961
7077.589,5.008245
7104.588,5.394947
7131.587,5.692391
7158.586,5.103445
7185.585,4.827057
7212.584,5.80208
7239.583,6.702109
7266.582,7.523355
7293.581,8.320451
7320.58,9.054228
7347.579,9.469347
7374.578,9.884566
7401.577,10.18629
7428.576,10.32063
7455.575,10.39719
7482.574,10.42587
7509.573,10.41161
7536.572,10.38385
7563.571,10.33361
7590.57,10.26529
7617.569,10.16876
7644.568,10.0485
7671.566,9.942203
7698.565,9.87066
7725.564,9.780967
7752.563,9.697951
7779.563,9.593172
7806.562,9.511372
7833.561,9.401584
7860.56,9.260203
7887.559,9.076885
7914.558,8.849822
7941.557,8.587546
7968.556,8.278634
7995.555,7.93596
8022.554,7.534031
8049.553,7.078221
8076.552,6.59625
8103.551,6.057292
8130.55,5.466534
8157.548,4.881892
8184.547,4.374557
8211.546,4.104273
8238.545,4.077661
8265.544,4.146195
8292.543,4.403229
8319.542,4.737782
8346.541,5.108265
8373.54,5.52965
8400.539,5.844718
8427.538,5.990606
8454.537,6.503619
8481.536,6.992953
8508.535,7.37017
8535.534,7.570309
8562.533,7.266452
8589.532,7.821486
8616.531,8.64662
8643.53,9.290511
8670.529,9.687483
8697.528,10.0498
8724.527,10.50375
8751.525,10.91947
8778.524,11.21556
8805.523,11.42948
8832.522,11.55346
8859.521,11.59591
8886.521,11.63922
8913.52,11.65753
8940.519,11.62858
8967.518,11.64018
8994.517,11.66424
9021.516,11.67923
9048.515,11.72354
9075.514,11.71204
9102.513,11.74272
9129.512,11.71458
9156.511,11.70455
9183.51,11.65802
9210.509,11.61122
9237.508,11.5544
9264.507,11.56557
9291.506,11.52713
9318.504,11.50812
9345.503,11.49859
9372.502,11.45703
9399.501,11.38359
9426.5,11.31437
9453.499,11.21401
9480.498,11.16278
9507.497,11.1099
9534.496,11.05407
9561.495,10.97614
9588.494,10.90835
9615.493,10.93598
9642.492,11.04176
9669.491,11.16051
9696.49,11.28232
9723.489,11.38419
9750.488,11.50744
9777.487,11.54753
9804.486,11.58785
9831.485,11.5792
9858.484,11.69094
9885.482,11.84461
9912.481,11.94691
9939.48,12.0462
9966.479,12.13454
9993.479,12.20259
10020.48,12.2247
10047.48,12.30368
10074.48,12.38321
10101.47,12.43159
10128.47,12.45644
10155.47,12.42661
10182.47,12.46064
10209.47,12.45433
10236.47,12.4753
10263.47,12.47682
10290.47,12.43894
10317.47,12.3894
10344.47,12.3492
10371.46,12.35574
10398.46,12.31211
10425.46,12.33289
10452.46,12.26315
10479.46,12.15279
10506.46,12.06975
10533.46,11.91312
10560.46,11.70002
10587.46,11.4508
10614.46,11.11836
10641.45,10.66281
10668.45,10.29061
10695.45,9.986307
10722.45,9.879271
10749.45,9.893722
10776.45,10.09274
10803.45,10.29111
10830.45,10.58182
10857.45,10.87823
10884.45,11.16804
10911.44,11.40119
10938.44,11.69526
10965.44,11.93588
10992.44,12.06849
11019.44,12.23666
11046.44,12.32051
11073.44,12.4211
11100.44,12.45963
11127.44,12.5432
11154.43,12.6432
11181.43,12.67609
11208.43,12.80844
11235.43,12.95726
11262.43,12.9335
11289.43,12.9522
11316.43,13.06216
11343.43,13.14263
11370.43,13.0702
11397.43,13.20942
11424.42,13.23584
11451.42,13.29441
11478.42,13.35773
11505.42,13.29826
11532.42,13.31043
11559.42,13.41506
11586.42,13.49084
11613.42,13.48222
11640.42,13.50724
11667.42,13.40329
11694.41,13.44072
11721.41,13.32964
11748.41,13.57682
11775.41,13.53931
11802.41,13.46717
11829.41,13.48245
11856.41,13.53266
11883.41,13.48691
11910.41,13.40831
11937.41,13.50948
11964.4,13.41922
11991.4,13.40827
11999.12,13.53042

File: N1473LDPE_2.csv
Wavenumber,Intensity
3999.706,2.932982
4026.705,2.949682
4053.704,2.963115
4080.703,2.969763
4107.702,2.976054
4134.701,2.980689
4161.7,2.989865
4188.699,3.004679
4215.698,3.043214
4242.697,3.062896
4269.696,3.085988
4296.694,3.100241
4323.693,3.075866
4350.692,3.105408
4377.691,3.115596
4404.69,3.139824
4431.689,3.222854
4458.688,3.354988
4485.688,3.496876
4512.687,3.665237
4539.686,3.838187
4566.685,4.039179
4593.683,4.183118
4620.682,4.269605
4647.681,4.322649
4674.68,4.298469
4701.679,4.398818
4728.678,4.34552
4755.677,4.29313
4782.676,4.195436
4809.675,4.13576
4836.674,4.021155
4863.673,3.890112
4890.672,3.913265
4917.671,3.937643
4944.67,3.913518
4971.669,3.796743
4998.668,3.900901
5025.667,3.95829
5052.666,3.972046
5079.665,3.955537
5106.664,3.943206
5133.663,3.9749
5160.662,3.941145
5187.661,3.935199
5214.66,3.937958
5241.659,3.961083
5268.658,3.968404
5295.657,3.963971
5322.656,3.993375
5349.655,3.927531
5376.654,3.822932
5403.652,3.731957
5430.651,3.619309
5457.65,3.585268
5484.649,3.535857
5511.648,3.539847
5538.647,3.537178
5565.646,3.549036
5592.646,3.605968
5619.645,3.521676
5646.644,3.419005
5673.643,3.361771
5700.642,3.452568
5727.641,3.447735
5754.639,3.346588
5781.638,3.317191
5808.637,3.345902
5835.636,3.419257
5862.635,3.64146
5889.634,4.261944
5916.633,4.813118
5943.632,5.792348
5970.631,6.557953
5997.63,7.201664
6024.629,7.713806
6051.628,8.084043
6078.627,8.339975
6105.626,8.500529
6132.625,8.67016
6159.624,8.88636
6186.623,9.084718
6213.622,9.211078
6240.621,9.288622
6267.62,9.326252
6294.619,9.361208
6321.618,9.368952
6348.617,9.307243
6375.616,9.149243
6402.615,9.046802
6429.614,8.844312
6456.613,8.552062
6483.612,7.7528
6510.61,8.044064
6537.609,8.192323
6564.608,8.28047
6591.607,8.3653
6618.606,8.356133
6645.605,8.280996
6672.604,8.159219
6699.604,7.973225
6726.603,7.739038
6753.602,7.519958
6780.601,7.247221
6807.6,6.844471
6834.599,6.436924
6861.598,6.218327
6888.597,5.953838
6915.596,5.70372
6942.594,5.35928
6969.593,5.259375
6996.592,5.189163
7023.591,5.027084
7050.59,4.954494
7077.589,5.004519
7104.588,5.392724
7131.587,5.691663
7158.586,5.096884
7185.585,4.820973
7212.584,5.798341
7239.583,6.697883
7266.582,7.515584
7293.581,8.316907
7320.58,9.052398
7347.579,9.466535
7374.578,9.882012
7401.577,10.18958
7428.576,10.31702
7455.575,10.38599
7482.574,10.42101
7509.573,10.40854
7536.572,10.38373
7563.571,10.332
7590.57,10.26688
7617.569,10.17061
7644.568,10.04705
7671.566,9.934258
7698.565,9.87685
7725.564,9.784579
7752.563,9.694181
7779.563,9.592161
7806.562,9.504657
7833.561,9.398363
7860.56,9.250601
7887.559,9.06786
7914.558,8.852004
7941.557,8.58392
7968.556,8.278736
7995.555,7.932063
8022.554,7.537056
8049.553,7.078048
8076.552,6.598907
8103.551,6.059456
8130.55,5.4706
8157.548,4.882612
8184.547,4.371891
8211.546,4.106019
8238.545,4.09001
8265.544,4.16256
8292.543,4.401014
8319.542,4.732142
8346.541,5.113991
8373.54,5.54181
8400.539,5.838148
8427.538,5.983424
8454.537,6.512003
8481.536,6.992681
8508.535,7.365799
8535.534,7.570395
8562.533,7.268064
8589.532,7.825199
8616.531,8.626873
8643.53,9.283172
8670.529,9.678994
8697.528,10.04653
8724.527,10.49652
8751.525,10.92446
8778.524,11.2036
8805.523,11.43115
8832.522,11.55344
8859.521,11.61427
8886.521,11.64545
8913.52,11.63901
8940.519,11.63576
8967.518,11.64362
8994.517,11.66528
9021.516,11.69175
9048.515,11.71878
9075.514,11.71194
9102.513,11.75098
9129.512,11.72114
9156.511,11.69381
9183.51,11.66824
9210.509,11.62621
9237.508,11.56878
9264.507,11.56907
9291.506,11.51847
9318.504,11.5185
9345.503,11.50673
9372.502,11.45644
9399.501,11.38504
9426.5,11.31786
9453.499,11.23001
9480.498,11.15286
9507.497,11.11314
9534.496,11.05237
9561.495,10.97584
9588.494,10.91165
9615.493,10.92887
9642.492,11.04861
9669.491,11.16185
9696.49,11.27564
9723.489,11.39984
9750.488,11.51753
9777.487,11.53738
9804.486,11.56301
9831.485,11.58707
9858.484,11.69493
9885.482,11.8371
9912.481,11.91701
9939.48,12.06911
9966.479,12.14061
9993.479,12.19649
10020.48,12.24099
10047.48,12.31173
10074.48,12.38672
10101.47,12.41358
10128.47,12.45979
10155.47,12.45781
10182.47,12.46672
10209.47,12.47911
10236.47,12.46545
10263.47,12.4725
10290.47,12.42418
10317.47,12.37463
10344.47,12.38006
10371.46,12.32636
10398.46,12.33499
10425.46,12.36687
10452.46,12.24017
10479.46,12.1622
10506.46,12.10957
10533.46,11.94413
10560.46,11.7413
10587.46,11.45376
10614.46,11.08556
10641.45,10.7352
10668.45,10.27078
10695.45,9.959675
10722.45,9.879502
10749.45,9.858166
10776.45,10.10963
10803.45,10.33587
10830.45,10.62036
10857.45,10.89228
10884.45,11.23534
10911.44,11.4528
10938.44,11.69201
10965.44,11.93855
10992.44,12.09947
11019.44,12.21925
11046.44,12.35154
11073.44,12.45007
11100.44,12.50374
11127.44,12.45552
11154.43,12.65858
11181.43,12.68375
11208.43,12.81337
11235.43,12.8968
11262.43,12.98612
11289.43,13.03711
11316.43,12.99902
11343.43,13.11195
11370.43,13.1216
11397.43,13.19939
11424.42,13.26366
11451.42,13.30222
11478.42,13.45549
11505.42,13.29407
11532.42,13.34967
11559.42,13.37604
11586.42,13.47609
11613.42,13.46604
11640.42,13.63521
11667.42,13.3395
11694.41,13.54055
11721.41,13.52444
11748.41,13.58234
11775.41,13.50671
11802.41,13.4884
11829.41,13.49786
11856.41,13.52406
11883.41,13.43081
11910.41,13.48359
11937.41,13.4874
11964.4,13.65537
11991.4,13.46211
11999.12,13.43496

File: N1473LDPE_3.csv
Wavenumber,Intensity
3999.706,3.273554
4026.705,3.294872
4053.704,3.307385
4080.703,3.321619
4107.702,3.329476
4134.701,3.328657
4161.7,3.342934
4188.699,3.360375
4215.698,3.402199
4242.697,3.426244
4269.696,3.443804
4296.694,3.457973
4323.693,3.442706
4350.692,3.466502
4377.691,3.471521
4404.69,3.500567
4431.689,3.629765
4458.688,3.849544
4485.688,4.071547
4512.687,4.310694
4539.686,4.554587
4566.685,4.824186
4593.683,5.00781
4620.682,5.114057
4647.681,5.180959
4674.68,5.147498
4701.679,5.270014
4728.678,5.200968
4755.677,5.127961
4782.676,4.998749
4809.675,4.918738
4836.674,4.767997
4863.673,4.581155
4890.672,4.607602
4917.671,4.641869
4944.67,4.608886
4971.669,4.437772
4998.668,4.581473
5025.667,4.662853
5052.666,4.680768
5079.665,4.65003
5106.664,4.636569
5133.663,4.67686
5160.662,4.626069
5187.661,4.615008
5214.66,4.618905
5241.659,4.649117
5268.658,4.658895
5295.657,4.648809
5322.656,4.681352
5349.655,4.592613
5376.654,4.44
5403.652,4.304391
5430.651,4.136731
5457.65,4.087167
5484.649,4.006766
5511.648,4.008049
5538.647,4.008972
5565.646,4.02117
5592.646,4.109166
5619.645,3.980729
5646.644,3.818725
5673.643,3.723227
5700.642,3.860953
5727.641,3.850564
5754.639,3.701445
5781.638,3.666483
5808.637,3.700596
5835.636,3.792833
5862.635,4.139521
5889.634,5.012731
5916.633,5.694168
5943.632,6.807204
5970.631,7.601819
5997.63,8.23727
6024.629,8.727705
6051.628,9.070642
6078.627,9.299164
6105.626,9.450939
6132.625,9.606268
6159.624,9.795477
6186.623,9.96654
6213.622,10.07656
6240.621,10.14768
6267.62,10.18003
6294.619,10.20684
6321.618,10.21368
6348.617,10.15857
6375.616,10.02307
6402.615,9.927656
6429.614,9.751592
6456.613,9.485104
6483.612,8.746781
6510.61,9.013356
6537.609,9.154849
6564.608,9.238951
6591.607,9.309102
6618.606,9.304321
6645.605,9.225537
6672.604,9.110581
6699.604,8.938441
6726.603,8.725092
6753.602,8.51867
6780.601,8.251595
6807.6,7.854951
6834.599,7.447402
6861.598,7.232659
6888.597,6.938423
6915.596,6.672876
6942.594,6.287788
6969.593,6.168121
6996.592,6.087423
7023.591,5.909486
7050.59,5.812969
7077.589,5.879298
7104.588,6.316466
7131.587,6.641793
7158.586,5.992897
7185.585,5.654417
7212.584,6.757785
7239.583,7.698741
7266.582,8.495008
7293.581,9.252293
7320.58,9.923179
7347.579,10.28173
7374.578,10.65698
7401.577,10.91006
7428.576,11.02931
7455.575,11.08168
7482.574,11.11638
7509.573,11.09996
7536.572,11.08162
7563.571,11.04181
7590.57,10.97544
7617.569,10.89967
7644.568,10.79019
7671.566,10.70107
7698.565,10.64301
7725.564,10.56439
7752.563,10.48779
7779.563,10.41004
7806.562,10.32041
7833.561,10.22963
7860.56,10.09275
7887.559,9.932523
7914.558,9.728394
7941.557,9.497606
7968.556,9.214229
7995.555,8.883379
8022.554,8.497121
8049.553,8.07672
8076.552,7.578506
8103.551,7.02199
8130.55,6.381585
8157.548,5.697608
8184.547,5.065098
8211.546,4.721836
8238.545,4.681546
8265.544,4.787808
8292.543,5.09734
8319.542,5.508755
8346.541,5.962648
8373.54,6.44252
8400.539,6.77226
8427.538,6.931292
8454.537,7.474922
8481.536,7.969283
8508.535,8.350944
8535.534,8.545993
8562.533,8.253177
8589.532,8.769233
8616.531,9.549643
8643.53,10.14584
8670.529,10.48744
8697.528,10.80619
8724.527,11.20807
8751.525,11.57136
8778.524,11.8332
8805.523,11.99874
8832.522,12.106
8859.521,12.15523
8886.521,12.17118
8913.52,12.19431
8940.519,12.17165
8967.518,12.1809
8994.517,12.20259
9021.516,12.23244
9048.515,12.25561
9075.514,12.23984
9102.513,12.26813
9129.512,12.24083
9156.511,12.24897
9183.51,12.19748
9210.509,12.16668
9237.508,12.12428
9264.507,12.10872
9291.506,12.10168
9318.504,12.09492
9345.503,12.08617
9372.502,12.02292
9399.501,11.99293
9426.5,11.90864
9453.499,11.84626
9480.498,11.79649
9507.497,11.76273
9534.496,11.72013
9561.495,11.6423
9588.494,11.60749
9615.493,11.61224
9642.492,11.6951
9669.491,11.78903
9696.49,11.91856
9723.489,12.00717
9750.488,12.13277
9777.487,12.14883
9804.486,12.16623
9831.485,12.16998
9858.484,12.27246
9885.482,12.37256
9912.481,12.47991
9939.48,12.59044
9966.479,12.67056
9993.479,12.71995
10020.48,12.74435
10047.48,12.79451
10074.48,12.83889
10101.47,12.89923
10128.47,12.92542
10155.47,12.88937
10182.47,12.93656
10209.47,12.95446
10236.47,12.92338
10263.47,12.92521
10290.47,12.91848
10317.47,12.9116
10344.47,12.88143
10371.46,12.85331
10398.46,12.79574
10425.46,12.84656
10452.46,12.79211
10479.46,12.7182
10506.46,12.65461
10533.46,12.51583
10560.46,12.33325
10587.46,12.1188
10614.46,11.80521
10641.45,11.44496
10668.45,11.07281
10695.45,10.77343
10722.45,10.69303
10749.45,10.73493
10776.45,10.8732
10803.45,11.13761
10830.45,11.33859
10857.45,11.60928
10884.45,11.93432
10911.44,12.12047
10938.44,12.33781
10965.44,12.50337
10992.44,12.69966
11019.44,12.78737
11046.44,12.9129
11073.44,12.99845
11100.44,13.05992
11127.44,13.06366
11154.43,13.12451
11181.43,13.21013
11208.43,13.31386
11235.43,13.39968
11262.43,13.49048
11289.43,13.48849
11316.43,13.47569
11343.43,13.58597
11370.43,13.5267
11397.43,13.73283
11424.42,13.69996
11451.42,13.82119
11478.42,13.88841
11505.42,13.70313
11532.42,13.74974
11559.42,13.88484
11586.42,13.94644
11613.42,13.86845
11640.42,13.9424
11667.42,13.82775
11694.41,13.93299
11721.41,13.95
11748.41,13.94064
11775.41,13.91235
11802.41,13.88581
11829.41,13.87141
11856.41,13.76591
11883.41,13.79589
11910.41,13.87187
11937.41,13.75822
11964.4,13.84099
11991.4,13.72058
11999.12,13.99642

File: N1473LDPE_4.csv
Wavenumber,Intensity
3999.706,2.458613
4026.705,2.466516
4053.704,2.476346
4080.703,2.483618
4107.702,2.485506
4134.701,2.488753
4161.7,2.496544
4188.699,2.51644
4215.698,2.54923
4242.697,2.568583
4269.696,2.583472
4296.694,2.597516
4323.693,2.57435
4350.692,2.597465
4377.691,2.62025
4404.69,2.646216
4431.689,2.813249
4458.688,3.107018
4485.688,3.436394
4512.687,3.793168
4539.686,4.145566
4566.685,4.533643
4593.683,4.792776
4620.682,4.947957
4647.681,5.029537
4674.68,4.973958
4701.679,5.147506
4728.678,5.027396
4755.677,4.911791
4782.676,4.712237
4809.675,4.577142
4836.674,4.339826
4863.673,4.06011
4890.672,4.096181
4917.671,4.134569
4944.67,4.094277
4971.669,3.830129
4998.668,4.04404
5025.667,4.163096
5052.666,4.181564
5079.665,4.130188
5106.664,4.102399
5133.663,4.153833
5160.662,4.083051
5187.661,4.058453
5214.66,4.059906
5241.659,4.096822
5268.658,4.116734
5295.657,4.096535
5322.656,4.146579
5349.655,4.005332
5376.654,3.788693
5403.652,3.587687
5430.651,3.356735
5457.65,3.279438
5484.649,3.177262
5511.648,3.173977
5538.647,3.168892
5565.646,3.192924
5592.646,3.304321
5619.645,3.135171
5646.644,2.931625
5673.643,2.817894
5700.642,2.975777
5727.641,2.961956
5754.639,2.790105
5781.638,2.740639
5808.637,2.782046
5835.636,2.890998
5862.635,3.33333
5889.634,4.551232
5916.633,5.536865
5943.632,7.137499
5970.631,8.255766
5997.63,9.140521
6024.629,9.795122
6051.628,10.26122
6078.627,10.56751
6105.626,10.75145
6132.625,10.95263
6159.624,11.19744
6186.623,11.41439
6213.622,11.54077
6240.621,11.62649
6267.62,11.66966
6294.619,11.69748
6321.618,11.6911
6348.617,11.60853
6375.616,11.42432
6402.615,11.29356
6429.614,11.05319
6456.613,10.69005
6483.612,9.696241
6510.61,10.05236
6537.609,10.24151
6564.608,10.34153
6591.607,10.42781
6618.606,10.41252
6645.605,10.30437
6672.604,10.1397
6699.604,9.904802
6726.603,9.607424
6753.602,9.327137
6780.601,8.956893
6807.6,8.409448
6834.599,7.853899
6861.598,7.536839
6888.597,7.132257
6915.596,6.761931
6942.594,6.215011
6969.593,6.0471
6996.592,5.937716
7023.591,5.688685
7050.59,5.559397
7077.589,5.645702
7104.588,6.226425
7131.587,6.690734
7158.586,5.754493
7185.585,5.315976
7212.584,6.818113
7239.583,8.073594
7266.582,9.147814
7293.581,10.13683
7320.58,10.99041
7347.579,11.44513
7374.578,11.88614
7401.577,12.20446
7428.576,12.33037
7455.575,12.39951
7482.574,12.41933
7509.573,12.39957
7536.572,12.35942
7563.571,12.29795
7590.57,12.2164
7617.569,12.09981
7644.568,11.96901
7671.566,11.84548
7698.565,11.7562
7725.564,11.65371
7752.563,11.55791
7779.563,11.43837
7806.562,11.33781
7833.561,11.20315
7860.56,11.03955
7887.559,10.81918
7914.558,10.56985
7941.557,10.26665
7968.556,9.889746
7995.555,9.459968
8022.554,8.980407
8049.553,8.392012
8076.552,7.746608
8103.551,6.988205
8130.55,6.129272
8157.548,5.211674
8184.547,4.372495
8211.546,3.901757
8238.545,3.859839
8265.544,3.995928
8292.543,4.395871
8319.542,4.953629
8346.541,5.541669
8373.54,6.167731
8400.539,6.616696
8427.538,6.821362
8454.537,7.52189
8481.536,8.166411
8508.535,8.635077
8535.534,8.875947
8562.533,8.495616
8589.532,9.150846
8616.531,10.12213
8643.53,10.84795
8670.529,11.25819
8697.528,11.61748
8724.527,12.10399
8751.525,12.52237
8778.524,12.82177
8805.523,13.01388
8832.522,13.12206
8859.521,13.1737
8886.521,13.21102
8913.52,13.20231
8940.519,13.18437
8967.518,13.18412
8994.517,13.17905
9021.516,13.22268
9048.515,13.22244
9075.514,13.24032
9102.513,13.23274
9129.512,13.19963
9156.511,13.16628
9183.51,13.14351
9210.509,13.10187
9237.508,13.03109
9264.507,12.99831
9291.506,12.9463
9318.504,12.95074
9345.503,12.93725
9372.502,12.87226
9399.501,12.80997
9426.5,12.72356
9453.499,12.63856
9480.498,12.52155
9507.497,12.48284
9534.496,12.41586
9561.495,12.3407
9588.494,12.2753
9615.493,12.29744
9642.492,12.35484
9669.491,12.50721
9696.49,12.58184
9723.489,12.7303
9750.488,12.79279
9777.487,12.82593
9804.486,12.86017
9831.485,12.87321
9858.484,12.95235
9885.482,13.07104
9912.481,13.18217
9939.48,13.22655
9966.479,13.35581
9993.479,13.39805
10020.48,13.43097
10047.48,13.48933
10074.48,13.54517
10101.47,13.5505
10128.47,13.58364
10155.47,13.58417
10182.47,13.59292
10209.47,13.57579
10236.47,13.56402
10263.47,13.54528
10290.47,13.5277
10317.47,13.47871
10344.47,13.45848
10371.46,13.4428
10398.46,13.3818
10425.46,13.38997
10452.46,13.28478
10479.46,13.22321
10506.46,13.13325
10533.46,12.99892
10560.46,12.73352
10587.46,12.46455
10614.46,12.10799
10641.45,11.7217
10668.45,11.31231
10695.45,10.93378
10722.45,10.88083
10749.45,10.85764
10776.45,11.0369
10803.45,11.38383
10830.45,11.62189
10857.45,11.85044
10884.45,12.10671
10911.44,12.41052
10938.44,12.59874
10965.44,12.76072
10992.44,13.0477
11019.44,13.14828
11046.44,13.2711
11073.44,13.3199
11100.44,13.36735
11127.44,13.39931
11154.43,13.46449
11181.43,13.50712
11208.43,13.60882
11235.43,13.62587
11262.43,13.76878
11289.43,13.79719
11316.43,13.70534
11343.43,13.82269
11370.43,13.92779
11397.43,13.8506
11424.42,13.95919
11451.42,13.96118
11478.42,13.99045
11505.42,13.94123
11532.42,14.03861
11559.42,14.05117
11586.42,14.02623
11613.42,14.08909
11640.42,14.00914
11667.42,14.08229
11694.41,14.0991
11721.41,14.17507
11748.41,14.04763
11775.41,14.11565
11802.41,13.99534
11829.41,14.00571
11856.41,13.89619
11883.41,13.91995
11910.41,13.89421
11937.41,14.02995
11964.4,13.87069
11991.4,13.83143
11999.12,13.99587