Folder: nir_corr_po/Data/NIR

File: H0002LDPE_1.csv
Wavenumber,Intensity
3999.706,2.548316
4026.705,2.569179
4053.704,2.57971
4080.703,2.592913
4107.702,2.595837
4134.701,2.604193
4161.7,2.613631
4188.699,2.624279
4215.698,2.660111
4242.697,2.677673
4269.696,2.69495
4296.694,2.704902
4323.693,2.702076
4350.692,2.71236
4377.691,2.710265
4404.69,2.717912
4431.689,2.74992
4458.688,2.834769
4485.688,2.943983
4512.687,3.080828
4539.686,3.235353
4566.685,3.412409
4593.683,3.53249
4620.682,3.609464
4647.681,3.654865
4674.68,3.628535
4701.679,3.72007
4728.678,3.667526
4755.677,3.617409
4782.676,3.524976
4809.675,3.469824
4836.674,3.37296
4863.673,3.259437
4890.672,3.279271
4917.671,3.297984
4944.67,3.27823
4971.669,3.180044
4998.668,3.264981
5025.667,3.318887
5052.666,3.326262
5079.665,3.311308
5106.664,3.299133
5133.663,3.330102
5160.662,3.295413
5187.661,3.291734
5214.66,3.294104
5241.659,3.313741
5268.658,3.326049
5295.657,3.317816
5322.656,3.342102
5349.655,3.287517
5376.654,3.197674
5403.652,3.12574
5430.651,3.038868
5457.65,3.015879
5484.649,2.979734
5511.648,2.983148
5538.647,2.979257
5565.646,2.98915
5592.646,3.02915
5619.645,2.971313
5646.644,2.907849
5673.643,2.879337
5700.642,2.929128
5727.641,2.91892
5754.639,2.881319
5781.638,2.878291
5808.637,2.879726
5835.636,2.911237
5862.635,3.065729
5889.634,3.577632
5916.633,4.042993
5943.632,4.827571
5970.631,5.45827
5997.63,5.992368
6024.629,6.413255
6051.628,6.707778
6078.627,6.904742
6105.626,7.017875
6132.625,7.15273
6159.624,7.312685
6186.623,7.463507
6213.622,7.552605
6240.621,7.613255
6267.62,7.63838
6294.619,7.66298
6321.618,7.661078
6348.617,7.607383
6375.616,7.478981
6402.615,7.39253
6429.614,7.230262
6456.613,6.99055
6483.612,6.334828
6510.61,6.589194
6537.609,6.720484
6564.608,6.794415
6591.607,6.859895
6618.606,6.855281
6645.605,6.791896
6672.604,6.692545
6699.604,6.539351
6726.603,6.353642
6753.602,6.173049
6780.601,5.951118
6807.6,5.617221
6834.599,5.276547
6861.598,5.104542
6888.597,4.883186
6915.596,4.681673
6942.594,4.38271
6969.593,4.300218
6996.592,4.241577
7023.591,4.113397
7050.59,4.05559
7077.589,4.093622
7104.588,4.411724
7131.587,4.661124
7158.586,4.166591
7185.585,3.949012
7212.584,4.771108
7239.583,5.519739
7266.582,6.176496
7293.581,6.817467
7320.58,7.380019
7347.579,7.710556
7374.578,8.012433
7401.577,8.22415
7428.576,8.326065
7455.575,8.369151
7482.574,8.393586
7509.573,8.377265
7536.572,8.365847
7563.571,8.324048
7590.57,8.268151
7617.569,8.200514
7644.568,8.106512
7671.566,8.020539
7698.565,7.968296
7725.564,7.902131
7752.563,7.829664
7779.563,7.760681
7806.562,7.688994
7833.561,7.616379
7860.56,7.493669
7887.559,7.352723
7914.558,7.177586
7941.557,6.976994
7968.556,6.732388
7995.555,6.45677
8022.554,6.127529
8049.553,5.776622
8076.552,5.381594
8103.551,4.940213
8130.55,4.449373
8157.548,3.976781
8184.547,3.565752
8211.546,3.356537
8238.545,3.339908
8265.544,3.399802
8292.543,3.610228
8319.542,3.868879
8346.541,4.195251
8373.54,4.553293
8400.539,4.811203
8427.538,4.916404
8454.537,5.330659
8481.536,5.74226
8508.535,6.042409
8535.534,6.189315
8562.533,5.931111
8589.532,6.400944
8616.531,7.082472
8643.53,7.588679
8670.529,7.895761
8697.528,8.189667
8724.527,8.529392
8751.525,8.833115
8778.524,9.073227
8805.523,9.236635
8832.522,9.313937
8859.521,9.359225
8886.521,9.380645
8913.52,9.391319
8940.519,9.382144
8967.518,9.404347
8994.517,9.403012
9021.516,9.430717
9048.515,9.458497
9075.514,9.462036
9102.513,9.504374
9129.512,9.479793
9156.511,9.479455
9183.51,9.454024
9210.509,9.425488
9237.508,9.395623
9264.507,9.390695
9291.506,9.382471
9318.504,9.371187
9345.503,9.388425
9372.502,9.32912
9399.501,9.282666
9426.5,9.23055
9453.499,9.169957
9480.498,9.128879
9507.497,9.096886
9534.496,9.055923
9561.495,8.991022
9588.494,8.946471
9615.493,8.983313
9642.492,9.073034
9669.491,9.176982
9696.49,9.265141
9723.489,9.378776
9750.488,9.467205
9777.487,9.486314
9804.486,9.532613
9831.485,9.534279
9858.484,9.635276
9885.482,9.72331
9912.481,9.833455
9939.48,9.915734
9966.479,10.01375
9993.479,10.06318
10020.48,10.09036
10047.48,10.15941
10074.48,10.20374
10101.47,10.25848
10128.47,10.25961
10155.47,10.25798
10182.47,10.28129
10209.47,10.30567
10236.47,10.28771
10263.47,10.34359
10290.47,10.30667
10317.47,10.28514
10344.47,10.29968
10371.46,10.28425
10398.46,10.21912
10425.46,10.29108
10452.46,10.20364
10479.46,10.15025
10506.46,10.09977
10533.46,9.990065
10560.46,9.836752
10587.46,9.601746
10614.46,9.30772
10641.45,8.973346
10668.45,8.65291
10695.45,8.44591
10722.45,8.362229
10749.45,8.419466
10776.45,8.532522
10803.45,8.78017
10830.45,8.977142
10857.45,9.233883
10884.45,9.499561
10911.44,9.767514
10938.44,9.913182
10965.44,10.16006
10992.44,10.2484
11019.44,10.28087
11046.44,10.46382
11073.44,10.51748
11100.44,10.60299
11127.44,10.69095
11154.43,10.77801
11181.43,10.71007
11208.43,10.89082
11235.43,10.91673
11262.43,11.0696
11289.43,11.0679
11316.43,11.03255
11343.43,11.11363
11370.43,11.09529
11397.43,11.22376
11424.42,11.29257
11451.42,11.3005
11478.42,11.44383
11505.42,11.3771
11532.42,11.37671
11559.42,11.45834
11586.42,11.51016
11613.42,11.47462
11640.42,11.56056
11667.42,11.41685
11694.41,11.62425
11721.41,11.48618
11748.41,11.5624
11775.41,11.54808
11802.41,11.539
11829.41,11.51201
11856.41,11.36108
11883.41,11.44474
11910.41,11.46545
11937.41,11.39002
11964.4,11.50207
11991.4,11.49061
11999.12,11.47747

File: H0002LDPE_2.csv
Wavenumber,Intensity
3999.706,2.629323
4026.705,2.647147
4053.704,2.657434
4080.703,2.66915
4107.702,2.671588
4134.701,2.675982
4161.7,2.687539
4188.699,2.697735
4215.698,2.731886
4242.697,2.752897
4269.696,2.767204
4296.694,2.780875
4323.693,2.764567
4350.692,2.78056
4377.691,2.788291
4404.69,2.797861
4431.689,2.871901
4458.688,3.051803
4485.688,3.265677
4512.687,3.510391
4539.686,3.766274
4566.685,4.051736
4593.683,4.236583
4620.682,4.351664
4647.681,4.415681
4674.68,4.375128
4701.679,4.504168
4728.678,4.414582
4755.677,4.334255
4782.676,4.182853
4809.675,4.09057
4836.674,3.919654
4863.673,3.725461
4890.672,3.756945
4917.671,3.789992
4944.67,3.755003
4971.669,3.57693
4998.668,3.731823
5025.667,3.817126
5052.666,3.830552
5079.665,3.800141
5106.664,3.776297
5133.663,3.822434
5160.662,3.764317
5187.661,3.750778
5214.66,3.754442
5241.659,3.793123
5268.658,3.802398
5295.657,3.786585
5322.656,3.828237
5349.655,3.726754
5376.654,3.566976
5403.652,3.434621
5430.651,3.265217
5457.65,3.230979
5484.649,3.158279
5511.648,3.160901
5538.647,3.155119
5565.646,3.168139
5592.646,3.254097
5619.645,3.141113
5646.644,3.008161
5673.643,2.949237
5700.642,3.04416
5727.641,3.02633
5754.639,2.944422
5781.638,2.935647
5808.637,2.94311
5835.636,2.996418
5862.635,3.294527
5889.634,4.177929
5916.633,4.905473
5943.632,6.047001
5970.631,6.905817
5997.63,7.608066
6024.629,8.136223
6051.628,8.500385
6078.627,8.737327
6105.626,8.880416
6132.625,9.040131
6159.624,9.235566
6186.623,9.4152
6213.622,9.519551
6240.621,9.586329
6267.62,9.617975
6294.619,9.640011
6321.618,9.643591
6348.617,9.576503
6375.616,9.421463
6402.615,9.316552
6429.614,9.121618
6456.613,8.83145
6483.612,8.009994
6510.61,8.326314
6537.609,8.489356
6564.608,8.579575
6591.607,8.66334
6618.606,8.650996
6645.605,8.573273
6672.604,8.444489
6699.604,8.256775
6726.603,8.021741
6753.602,7.794882
6780.601,7.509821
6807.6,7.074009
6834.599,6.619241
6861.598,6.383374
6888.597,6.077563
6915.596,5.801235
6942.594,5.376817
6969.593,5.255942
6996.592,5.170473
7023.591,4.973384
7050.59,4.881457
7077.589,4.956175
7104.588,5.416041
7131.587,5.773004
7158.586,5.06611
7185.585,4.72677
7212.584,5.918744
7239.583,6.92887
7266.582,7.765351
7293.581,8.57152
7320.58,9.253041
7347.579,9.639547
7374.578,9.993072
7401.577,10.23243
7428.576,10.33927
7455.575,10.39325
7482.574,10.41917
7509.573,10.39998
7536.572,10.37774
7563.571,10.33084
7590.57,10.26091
7617.569,10.18527
7644.568,10.06324
7671.566,9.970943
7698.565,9.909558
7725.564,9.828425
7752.563,9.750469
7779.563,9.66213
7806.562,9.580989
7833.561,9.485634
7860.56,9.349089
7887.559,9.175229
7914.558,8.970815
7941.557,8.720715
7968.556,8.425637
7995.555,8.079762
8022.554,7.674222
8049.553,7.207514
8076.552,6.681005
8103.551,6.09999
8130.55,5.41612
8157.548,4.710746
8184.547,4.064455
8211.546,3.714677
8238.545,3.69874
8265.544,3.791933
8292.543,4.11321
8319.542,4.531773
8346.541,5.012321
8373.54,5.531416
8400.539,5.898561
8427.538,6.03495
8454.537,6.605919
8481.536,7.125274
8508.535,7.532185
8535.534,7.72845
8562.533,7.386317
8589.532,7.989386
8616.531,8.804449
8643.53,9.421102
8670.529,9.773973
8697.528,10.10932
8724.527,10.49981
8751.525,10.86195
8778.524,11.11779
8805.523,11.29798
8832.522,11.39069
8859.521,11.44078
8886.521,11.45602
8913.52,11.45939
8940.519,11.45681
8967.518,11.46861
8994.517,11.48308
9021.516,11.51385
9048.515,11.53262
9075.514,11.52615
9102.513,11.57545
9129.512,11.54393
9156.511,11.54463
9183.51,11.5146
9210.509,11.49028
9237.508,11.43966
9264.507,11.42577
9291.506,11.42291
9318.504,11.40348
9345.503,11.40375
9372.502,11.34543
9399.501,11.30278
9426.5,11.24326
9453.499,11.1787
9480.498,11.12678
9507.497,11.09956
9534.496,11.04148
9561.495,10.98858
9588.494,10.94185
9615.493,10.94214
9642.492,11.05108
9669.491,11.1711
9696.49,11.25825
9723.489,11.37724
9750.488,11.50225
9777.487,11.5249
9804.486,11.55548
9831.485,11.58985
9858.484,11.65535
9885.482,11.80226
9912.481,11.87382
9939.48,11.99364
9966.479,12.06488
9993.479,12.12264
10020.48,12.15935
10047.48,12.21622
10074.48,12.274
10101.47,12.33391
10128.47,12.34501
10155.47,12.34756
10182.47,12.38449
10209.47,12.40733
10236.47,12.39242
10263.47,12.38941
10290.47,12.36419
10317.47,12.33785
10344.47,12.33778
10371.46,12.34175
10398.46,12.31324
10425.46,12.3198
10452.46,12.20723
10479.46,12.19306
10506.46,12.10218
10533.46,11.97131
10560.46,11.80249
10587.46,11.57572
10614.46,11.25719
10641.45,10.90422
10668.45,10.53767
10695.45,10.20902
10722.45,10.13764
10749.45,10.18425
10776.45,10.40599
10803.45,10.61174
10830.45,10.83165
10857.45,11.14125
10884.45,11.44361
10911.44,11.67766
10938.44,11.88008
10965.44,12.08418
10992.44,12.26389
11019.44,12.36997
11046.44,12.46771
11073.44,12.66618
11100.44,12.62992
11127.44,12.70776
11154.43,12.75738
11181.43,12.76985
11208.43,12.92821
11235.43,12.96601
11262.43,13.09211
11289.43,13.11547
11316.43,13.1206
11343.43,13.20215
11370.43,13.13471
11397.43,13.30283
11424.42,13.30949
11451.42,13.46048
11478.42,13.49164
11505.42,13.40814
11532.42,13.49094
11559.42,13.5773
11586.42,13.57336
11613.42,13.53675
11640.42,13.51147
11667.42,13.51854
11694.41,13.51824
11721.41,13.4873
11748.41,13.62918
11775.41,13.63559
11802.41,13.5082
11829.41,13.43693
11856.41,13.28212
11883.41,13.3289
11910.41,13.28335
11937.41,13.2844
11964.4,13.08833
11991.4,13.08594
11999.12,13.16562

File: H0002LDPE_3.csv
Wavenumber,Intensity
3999.706,2.902155
4026.705,2.920917
4053.704,2.931853
4080.703,2.946637
4107.702,2.953099
4134.701,2.963866
4161.7,2.971775
4188.699,2.993573
4215.698,3.032874
4242.697,3.053359
4269.696,3.071454
4296.694,3.080317
4323.693,3.07946
4350.692,3.086308
4377.691,3.08762
4404.69,3.096009
4431.689,3.140215
4458.688,3.241592
4485.688,3.355832
4512.687,3.481056
4539.686,3.628476
4566.685,3.805924
4593.683,3.922808
4620.682,3.994996
4647.681,4.035988
4674.68,4.014455
4701.679,4.10365
4728.678,4.059318
4755.677,4.018386
4782.676,3.938754
4809.675,3.884063
4836.674,3.792098
4863.673,3.689852
4890.672,3.704686
4917.671,3.72809
4944.67,3.709181
4971.669,3.609726
4998.668,3.695565
5025.667,3.746866
5052.666,3.75862
5079.665,3.742837
5106.664,3.733044
5133.663,3.760928
5160.662,3.731512
5187.661,3.722603
5214.66,3.730224
5241.659,3.749746
5268.658,3.757786
5295.657,3.753948
5322.656,3.77541
5349.655,3.71919
5376.654,3.630767
5403.652,3.56097
5430.651,3.473637
5457.65,3.447062
5484.649,3.405923
5511.648,3.407199
5538.647,3.408827
5565.646,3.416215
5592.646,3.462361
5619.645,3.396998
5646.644,3.319884
5673.643,3.281985
5700.642,3.344705
5727.641,3.33291
5754.639,3.276667
5781.638,3.271809
5808.637,3.277353
5835.636,3.316794
5862.635,3.495326
5889.634,4.007343
5916.633,4.444687
5943.632,5.161579
5970.631,5.74527
5997.63,6.238134
6024.629,6.624529
6051.628,6.902749
6078.627,7.08028
6105.626,7.189447
6132.625,7.313572
6159.624,7.465784
6186.623,7.606431
6213.622,7.693305
6240.621,7.746933
6267.62,7.773458
6294.619,7.792749
6321.618,7.793324
6348.617,7.744609
6375.616,7.630084
6402.615,7.546066
6429.614,7.399124
6456.613,7.175296
6483.612,6.566302
6510.61,6.806862
6537.609,6.928102
6564.608,6.995605
6591.607,7.05945
6618.606,7.052238
6645.605,6.994034
6672.604,6.902546
6699.604,6.764241
6726.603,6.589736
6753.602,6.426884
6780.601,6.221983
6807.6,5.91272
6834.599,5.600086
6861.598,5.434216
6888.597,5.236484
6915.596,5.046406
6942.594,4.774217
6969.593,4.699642
6996.592,4.637188
7023.591,4.5159
7050.59,4.459914
7077.589,4.503941
7104.588,4.793299
7131.587,5.025679
7158.586,4.561638
7185.585,4.367584
7212.584,5.134371
7239.583,5.816479
7266.582,6.435522
7293.581,7.030262
7320.58,7.556
7347.579,7.864994
7374.578,8.13975
7401.577,8.337875
7428.576,8.429222
7455.575,8.478482
7482.574,8.49954
7509.573,8.491726
7536.572,8.471783
7563.571,8.431413
7590.57,8.394679
7617.569,8.326103
7644.568,8.230931
7671.566,8.15586
7698.565,8.1106
7725.564,8.046497
7752.563,7.988593
7779.563,7.92133
7806.562,7.8592
7833.561,7.785282
7860.56,7.676999
7887.559,7.553605
7914.558,7.382418
7941.557,7.206539
7968.556,6.987343
7995.555,6.723339
8022.554,6.419644
8049.553,6.097861
8076.552,5.725408
8103.551,5.31987
8130.55,4.865962
8157.548,4.422795
8184.547,4.021833
8211.546,3.817136
8238.545,3.803255
8265.544,3.863177
8292.543,4.063588
8319.542,4.322388
8346.541,4.628932
8373.54,4.966282
8400.539,5.20999
8427.538,5.307043
8454.537,5.709265
8481.536,6.08206
8508.535,6.360259
8535.534,6.507164
8562.533,6.273784
8589.532,6.705717
8616.531,7.32833
8643.53,7.78787
8670.529,8.093962
8697.528,8.357014
8724.527,8.672293
8751.525,8.963215
8778.524,9.194274
8805.523,9.332319
8832.522,9.409438
8859.521,9.43755
8886.521,9.482478
8913.52,9.493608
8940.519,9.475382
8967.518,9.490102
8994.517,9.508087
9021.516,9.532505
9048.515,9.564153
9075.514,9.562675
9102.513,9.591043
9129.512,9.57181
9156.511,9.595895
9183.51,9.551538
9210.509,9.537529
9237.508,9.498588
9264.507,9.502778
9291.506,9.498588
9318.504,9.491805
9345.503,9.48713
9372.502,9.46213
9399.501,9.424576
9426.5,9.371355
9453.499,9.30864
9480.498,9.285224
9507.497,9.260459
9534.496,9.215995
9561.495,9.143443
9588.494,9.125878
9615.493,9.165709
9642.492,9.229877
9669.491,9.328309
9696.49,9.416981
9723.489,9.506501
9750.488,9.624796
9777.487,9.639741
9804.486,9.661146
9831.485,9.680582
9858.484,9.760746
9885.482,9.856086
9912.481,9.939365
9939.48,10.06377
9966.479,10.1024
9993.479,10.16306
10020.48,10.18465
10047.48,10.21868
10074.48,10.305
10101.47,10.34726
10128.47,10.37171
10155.47,10.37377
10182.47,10.38834
10209.47,10.42496
10236.47,10.38574
10263.47,10.41298
10290.47,10.3887
10317.47,10.38104
10344.47,10.36806
10371.46,10.36644
10398.46,10.36599
10425.46,10.38594
10452.46,10.29408
10479.46,10.27446
10506.46,10.2183
10533.46,10.11742
10560.46,9.98379
10587.46,9.817625
10614.46,9.518576
10641.45,9.262899
10668.45,8.907829
10695.45,8.745546
10722.45,8.661404
10749.45,8.683846
10776.45,8.805202
10803.45,9.002643
10830.45,9.208724
10857.45,9.495381
10884.45,9.757432
10911.44,9.903442
10938.44,10.07585
10965.44,10.30482
10992.44,10.44292
11019.44,10.50683
11046.44,10.60711
11073.44,10.72661
11100.44,10.73295
11127.44,10.81185
11154.43,10.83294
11181.43,10.86244
11208.43,11.02551
11235.43,11.09895
11262.43,11.13223
11289.43,11.15443
11316.43,11.23432
11343.43,11.26267
11370.43,11.24558
11397.43,11.32714
11424.42,11.45859
11451.42,11.44734
11478.42,11.56036
11505.42,11.43842
11532.42,11.50878
11559.42,11.52678
11586.42,11.67937
11613.42,11.54536
11640.42,11.71709
11667.42,11.55702
11694.41,11.70043
11721.41,11.53582
11748.41,11.72852
11775.41,11.7185
11802.41,11.61926
11829.41,11.5792
11856.41,11.51664
11883.41,11.62443
11910.41,11.61003
11937.41,11.64776
11964.4,11.56777
11991.4,11.49457
11999.12,11.74246

File: H0002LDPE_4.csv
Wavenumber,Intensity
3999.706,3.094076
4026.705,3.105883
4053.704,3.123371
4080.703,3.139647
4107.702,3.145395
4134.701,3.153397
4161.7,3.157868
4188.699,3.177298
4215.698,3.21262
4242.697,3.231951
4269.696,3.249432
4296.694,3.264818
4323.693,3.254859
4350.692,3.264783
4377.691,3.270113
4404.69,3.273682
4431.689,3.340085
4458.688,3.500642
4485.688,3.691124
4512.687,3.916889
4539.686,4.157817
4566.685,4.431017
4593.683,4.618526
4620.682,4.726096
4647.681,4.790147
4674.68,4.745759
4701.679,4.879197
4728.678,4.788137
4755.677,4.713844
4782.676,4.568234
4809.675,4.476045
4836.674,4.320153
4863.673,4.140415
4890.672,4.162421
4917.671,4.192291
4944.67,4.166133
4971.669,3.994642
4998.668,4.147491
5025.667,4.227593
5052.666,4.243272
5079.665,4.213012
5106.664,4.192448
5133.663,4.233111
5160.662,4.181146
5187.661,4.170551
5214.66,4.170732
5241.659,4.201795
5268.658,4.220926
5295.657,4.203828
5322.656,4.246522
5349.655,4.15056
5376.654,4.014571
5403.652,3.880243
5430.651,3.737401
5457.65,3.692078
5484.649,3.630996
5511.648,3.631883
5538.647,3.630614
5565.646,3.644811
5592.646,3.72144
5619.645,3.616953
5646.644,3.506559
5673.643,3.457528
5700.642,3.533348
5727.641,3.52124
5754.639,3.45288
5781.638,3.447479
5808.637,3.450214
5835.636,3.497609
5862.635,3.768902
5889.634,4.589974
5916.633,5.301891
5943.632,6.463851
5970.631,7.364817
5997.63,8.111513
6024.629,8.674312
6051.628,9.076805
6078.627,9.345437
6105.626,9.497898
6132.625,9.67564
6159.624,9.897071
6186.623,10.08596
6213.622,10.20547
6240.621,10.28004
6267.62,10.31826
6294.619,10.34902
6321.618,10.35111
6348.617,10.27327
6375.616,10.10477
6402.615,9.988873
6429.614,9.77396
6456.613,9.448769
6483.612,8.556552
6510.61,8.902535
6537.609,9.085897
6564.608,9.180426
6591.607,9.274042
6618.606,9.263155
6645.605,9.176218
6672.604,9.029434
6699.604,8.827785
6726.603,8.574967
6753.602,8.328525
6780.601,8.018203
6807.6,7.556458
6834.599,7.081134
6861.598,6.826482
6888.597,6.508512
6915.596,6.222787
6942.594,5.792686
6969.593,5.670341
6996.592,5.584784
7023.591,5.395829
7050.59,5.298076
7077.589,5.377641
7104.588,5.830378
7131.587,6.200335
7158.586,5.465944
7185.585,5.150006
7212.584,6.353297
7239.583,7.392028
7266.582,8.307568
7293.581,9.185098
7320.58,9.92624
7347.579,10.36046
7374.578,10.75264
7401.577,11.01499
7428.576,11.12682
7455.575,11.19446
7482.574,11.21941
7509.573,11.20687
7536.572,11.17413
7563.571,11.12128
7590.57,11.05039
7617.569,10.95856
7644.568,10.83127
7671.566,10.71993
7698.565,10.63904
7725.564,10.56628
7752.563,10.47807
7779.563,10.3686
7806.562,10.28151
7833.561,10.17893
7860.56,10.02982
7887.559,9.83444
7914.558,9.609232
7941.557,9.334973
7968.556,9.008449
7995.555,8.628944
8022.554,8.202728
8049.553,7.703333
8076.552,7.155415
8103.551,6.537672
8130.55,5.834415
8157.548,5.137807
8184.547,4.512264
8211.546,4.197423
8238.545,4.172971
8265.544,4.279327
8292.543,4.563905
8319.542,4.98489
8346.541,5.439546
8373.54,5.969585
8400.539,6.340786
8427.538,6.470808
8454.537,7.055977
8481.536,7.594047
8508.535,8.039091
8535.534,8.229837
8562.533,7.891594
8589.532,8.496151
8616.531,9.397639
8643.53,10.06589
8670.529,10.46136
8697.528,10.81241
8724.527,11.24787
8751.525,11.63852
8778.524,11.91657
8805.523,12.10152
8832.522,12.21843
8859.521,12.27198
8886.521,12.28492
8913.52,12.29043
8940.519,12.28335
8967.518,12.27278
8994.517,12.30373
9021.516,12.33551
9048.515,12.36526
9075.514,12.36284
9102.513,12.3793
9129.512,12.38165
9156.511,12.35029
9183.51,12.32285
9210.509,12.29815
9237.508,12.25397
9264.507,12.22151
9291.506,12.17107
9318.504,12.20201
9345.503,12.17796
9372.502,12.12539
9399.501,12.07272
9426.5,12.01904
9453.499,11.92673
9480.498,11.87137
9507.497,11.81812
9534.496,11.74142
9561.495,11.69432
9588.494,11.64404
9615.493,11.67723
9642.492,11.75123
9669.491,11.89468
9696.49,12.02083
9723.489,12.11797
9750.488,12.2083
9777.487,12.28951
9804.486,12.28654
9831.485,12.29815
9858.484,12.39942
9885.482,12.50311
9912.481,12.62486
9939.48,12.72086
9966.479,12.84528
9993.479,12.86604
10020.48,12.90843
10047.48,12.97474
10074.48,13.00083
10101.47,13.07697
10128.47,13.08016
10155.47,13.08355
10182.47,13.1165
10209.47,13.12806
10236.47,13.10453
10263.47,13.15435
10290.47,13.11564
10317.47,13.045
10344.47,13.09603
10371.46,13.05135
10398.46,13.01239
10425.46,13.00115
10452.46,12.9587
10479.46,12.91658
10506.46,12.82048
10533.46,12.63211
10560.46,12.4725
10587.46,12.1875
10614.46,11.91203
10641.45,11.4901
10668.45,11.04935
10695.45,10.73033
10722.45,10.65862
10749.45,10.71999
10776.45,10.85264
10803.45,11.18808
10830.45,11.4545
10857.45,11.74538
10884.45,12.0209
10911.44,12.28075
10938.44,12.49724
10965.44,12.68529
10992.44,12.90768
11019.44,13.03244
11046.44,13.14582
11073.44,13.21681
11100.44,13.3367
11127.44,13.25523
11154.43,13.39935
11181.43,13.45163
11208.43,13.62111
11235.43,13.64595
11262.43,13.78565
11289.43,13.69828
11316.43,13.77848
11343.43,13.87269
11370.43,13.88946
11397.43,13.91146
11424.42,14.02614
11451.42,14.10692
11478.42,13.96416
11505.42,13.94791
11532.42,14.15155
11559.42,14.05859
11586.42,14.0716
11613.42,14.22123
11640.42,14.24164
11667.42,14.18025
11694.41,14.14756
11721.41,14.221
11748.41,14.34106
11775.41,14.26284
11802.41,14.33514
11829.41,14.27601
11856.41,14.12998
11883.41,14.44578
11910.41,14.32428
11937.41,14.34975
11964.4,14.23239
11991.4,14.24051
11999.12,14.17579