Folder: nir_corr_po/Data/NIR (part 11)

File: S0024LDPE_5.csv
Wavenumber,Intensity
3999.706,3.716538
4026.705,3.738798
4053.704,3.754743
4080.703,3.771409
4107.702,3.772171
4134.701,3.788413
4161.7,3.790243
4188.699,3.815216
4215.698,3.850986
4242.697,3.87443
4269.696,3.891797
4296.694,3.907271
4323.693,3.899275
4350.692,3.912905
4377.691,3.916138
4404.69,3.93323
4431.689,3.997036
4458.688,4.117526
4485.688,4.247706
4512.687,4.398515
4539.686,4.568806
4566.685,4.765579
4593.683,4.903347
4620.682,4.990751
4647.681,5.03972
4674.68,5.016
4701.679,5.117936
4728.678,5.061067
4755.677,5.016149
4782.676,4.920368
4809.675,4.861673
4836.674,4.754213
4863.673,4.631602
4890.672,4.647071
4917.671,4.667257
4944.67,4.653405
4971.669,4.538721
4998.668,4.637253
5025.667,4.688162
5052.666,4.700459
5079.665,4.685139
5106.664,4.674054
5133.663,4.704681
5160.662,4.670485
5187.661,4.660629
5214.66,4.668492
5241.659,4.686934
5268.658,4.701585
5295.657,4.686969
5322.656,4.712013
5349.655,4.652218
5376.654,4.564618
5403.652,4.468212
5430.651,4.372699
5457.65,4.337589
5484.649,4.289834
5511.648,4.285483
5538.647,4.289625
5565.646,4.301444
5592.646,4.351046
5619.645,4.279263
5646.644,4.1904
5673.643,4.142531
5700.642,4.210795
5727.641,4.210044
5754.639,4.130702
5781.638,4.119488
5808.637,4.130247
5835.636,4.183048
5862.635,4.383019
5889.634,4.936395
5916.633,5.451895
5943.632,6.387336
5970.631,7.154447
5997.63,7.815227
6024.629,8.33781
6051.628,8.720135
6078.627,8.983025
6105.626,9.107642
6132.625,9.320172
6159.624,9.568046
6186.623,9.766777
6213.622,9.892709
6240.621,9.98086
6267.62,10.0307
6294.619,10.0628
6321.618,10.06848
6348.617,9.993386
6375.616,9.823028
6402.615,9.715241
6429.614,9.497038
6456.613,9.178703
6483.612,8.340911
6510.61,8.640126
6537.609,8.80865
6564.608,8.897639
6591.607,8.978506
6618.606,8.966194
6645.605,8.878965
6672.604,8.736399
6699.604,8.545143
6726.603,8.311555
6753.602,8.080091
6780.601,7.80165
6807.6,7.385473
6834.599,6.98496
6861.598,6.767729
6888.597,6.499998
6915.596,6.260251
6942.594,5.919932
6969.593,5.81706
6996.592,5.751534
7023.591,5.609755
7050.59,5.535392
7077.589,5.592532
7104.588,5.953381
7131.587,6.228945
7158.586,5.651679
7185.585,5.41691
7212.584,6.346228
7239.583,7.226705
7266.582,8.042845
7293.581,8.884954
7320.58,9.615851
7347.579,10.06404
7374.578,10.51358
7401.577,10.8207
7428.576,10.95892
7455.575,11.03364
7482.574,11.06969
7509.573,11.06694
7536.572,11.03092
7563.571,10.96238
7590.57,10.89754
7617.569,10.79051
7644.568,10.65377
7671.566,10.53418
7698.565,10.44039
7725.564,10.35897
7752.563,10.27029
7779.563,10.14665
7806.562,10.06207
7833.561,9.94239
7860.56,9.789761
7887.559,9.590955
7914.558,9.345361
7941.557,9.077143
7968.556,8.748267
7995.555,8.397416
8022.554,7.996747
8049.553,7.551453
8076.552,7.065707
8103.551,6.535913
8130.55,5.973056
8157.548,5.434136
8184.547,4.95704
8211.546,4.731765
8238.545,4.72194
8265.544,4.788486
8292.543,4.993532
8319.542,5.288249
8346.541,5.647069
8373.54,6.046543
8400.539,6.338321
8427.538,6.475024
8454.537,6.965449
8481.536,7.436682
8508.535,7.83018
8535.534,8.012518
8562.533,7.726217
8589.532,8.274726
8616.531,9.106627
8643.53,9.778843
8670.529,10.19607
8697.528,10.56032
8724.527,11.0524
8751.525,11.49267
8778.524,11.81512
8805.523,12.04409
8832.522,12.17109
8859.521,12.23905
8886.521,12.27997
8913.52,12.27327
8940.519,12.25161
8967.518,12.25017
8994.517,12.29297
9021.516,12.29449
9048.515,12.32257
9075.514,12.36199
9102.513,12.3521
9129.512,12.33613
9156.511,12.29736
9183.51,12.26961
9210.509,12.22794
9237.508,12.19767
9264.507,12.1272
9291.506,12.08166
9318.504,12.10597
9345.503,12.06963
9372.502,12.01534
9399.501,11.93974
9426.5,11.88256
9453.499,11.77963
9480.498,11.68327
9507.497,11.63064
9534.496,11.56559
9561.495,11.49319
9588.494,11.4321
9615.493,11.452
9642.492,11.54048
9669.491,11.6779
9696.49,11.83804
9723.489,11.94179
9750.488,12.06809
9777.487,12.13737
9804.486,12.13764
9831.485,12.18364
9858.484,12.30189
9885.482,12.44539
9912.481,12.58089
9939.48,12.68993
9966.479,12.84081
9993.479,12.87861
10020.48,12.95347
10047.48,13.01694
10074.48,13.03958
10101.47,13.11334
10128.47,13.14372
10155.47,13.13884
10182.47,13.18534
10209.47,13.17477
10236.47,13.14033
10263.47,13.18178
10290.47,13.15317
10317.47,13.09453
10344.47,13.10527
10371.46,13.09421
10398.46,13.07674
10425.46,12.99941
10452.46,12.95257
10479.46,12.86887
10506.46,12.76726
10533.46,12.56855
10560.46,12.35193
10587.46,12.06443
10614.46,11.72225
10641.45,11.28475
10668.45,10.84398
10695.45,10.5128
10722.45,10.41545
10749.45,10.44826
10776.45,10.64367
10803.45,10.95237
10830.45,11.26658
10857.45,11.53709
10884.45,11.87836
10911.44,12.09536
10938.44,12.39002
10965.44,12.65263
10992.44,12.79767
11019.44,12.93103
11046.44,13.0727
11073.44,13.16776
11100.44,13.29158
11127.44,13.23945
11154.43,13.40975
11181.43,13.41414
11208.43,13.60088
11235.43,13.66211
11262.43,13.86903
11289.43,13.82393
11316.43,13.87805
11343.43,14.01481
11370.43,14.04962
11397.43,14.0266
11424.42,14.25864
11451.42,14.16835
11478.42,14.17201
11505.42,14.10174
11532.42,14.31397
11559.42,14.33538
11586.42,14.32161
11613.42,14.36303
11640.42,14.405
11667.42,14.43641
11694.41,14.33488
11721.41,14.34781
11748.41,14.48928
11775.41,14.38786
11802.41,14.38908
11829.41,14.40715
11856.41,14.27691
11883.41,14.41123
11910.41,14.1871
11937.41,14.10823
11964.4,14.15901
11991.4,14.1016
11999.12,14.0251

File: S0024LDPE_6.csv
Wavenumber,Intensity
3999.706,3.613563
4026.705,3.629427
4053.704,3.648337
4080.703,3.658923
4107.702,3.662509
4134.701,3.676003
4161.7,3.678848
4188.699,3.705393
4215.698,3.742692
4242.697,3.7625
4269.696,3.784656
4296.694,3.800267
4323.693,3.784573
4350.692,3.806083
4377.691,3.812931
4404.69,3.82525
4431.689,3.890304
4458.688,4.019581
4485.688,4.155696
4512.687,4.30382
4539.686,4.469039
4566.685,4.655291
4593.683,4.787088
4620.682,4.866094
4647.681,4.915526
4674.68,4.89406
4701.679,4.987798
4728.678,4.939807
4755.677,4.899211
4782.676,4.814695
4809.675,4.756948
4836.674,4.656896
4863.673,4.53898
4890.672,4.554128
4917.671,4.576005
4944.67,4.558517
4971.669,4.444213
4998.668,4.544176
5025.667,4.595606
5052.666,4.609419
5079.665,4.597099
5106.664,4.581928
5133.663,4.61212
5160.662,4.578918
5187.661,4.572002
5214.66,4.575253
5241.659,4.595104
5268.658,4.608582
5295.657,4.594919
5322.656,4.623734
5349.655,4.5669
5376.654,4.475323
5403.652,4.378839
5430.651,4.280309
5457.65,4.242315
5484.649,4.194641
5511.648,4.194262
5538.647,4.1973
5565.646,4.205347
5592.646,4.258349
5619.645,4.186326
5646.644,4.093527
5673.643,4.041048
5700.642,4.114508
5727.641,4.111022
5754.639,4.029531
5781.638,4.015702
5808.637,4.032829
5835.636,4.085421
5862.635,4.285366
5889.634,4.839196
5916.633,5.321365
5943.632,6.156455
5970.631,6.812689
5997.63,7.356345
6024.629,7.781588
6051.628,8.090864
6078.627,8.302268
6105.626,8.403766
6132.625,8.567951
6159.624,8.764429
6186.623,8.925848
6213.622,9.025623
6240.621,9.096851
6267.62,9.138104
6294.619,9.167117
6321.618,9.171651
6348.617,9.114925
6375.616,8.982803
6402.615,8.899053
6429.614,8.727608
6456.613,8.480815
6483.612,7.807055
6510.61,8.051693
6537.609,8.190041
6564.608,8.259476
6591.607,8.326304
6618.606,8.32379
6645.605,8.250867
6672.604,8.135004
6699.604,7.979925
6726.603,7.792402
6753.602,7.606803
6780.601,7.376519
6807.6,7.030104
6834.599,6.69495
6861.598,6.514577
6888.597,6.282773
6915.596,6.069215
6942.594,5.775578
6969.593,5.681748
6996.592,5.621702
7023.591,5.482853
7050.59,5.420387
7077.589,5.467283
7104.588,5.796893
7131.587,6.044703
7158.586,5.529691
7185.585,5.304283
7212.584,6.149289
7239.583,6.906614
7266.582,7.594797
7293.581,8.279639
7320.58,8.874608
7347.579,9.223701
7374.578,9.585053
7401.577,9.823622
7428.576,9.933094
7455.575,9.996786
7482.574,10.02016
7509.573,10.01482
7536.572,9.992911
7563.571,9.945028
7590.57,9.885834
7617.569,9.811345
7644.568,9.705142
7671.566,9.617017
7698.565,9.547292
7725.564,9.47817
7752.563,9.400294
7779.563,9.321769
7806.562,9.243694
7833.561,9.155377
7860.56,9.037055
7887.559,8.877916
7914.558,8.694965
7941.557,8.479355
7968.556,8.205737
7995.555,7.921123
8022.554,7.587882
8049.553,7.209226
8076.552,6.791573
8103.551,6.335845
8130.55,5.830855
8157.548,5.331062
8184.547,4.8765
8211.546,4.649198
8238.545,4.632562
8265.544,4.708896
8292.543,4.918208
8319.542,5.195745
8346.541,5.532485
8373.54,5.895942
8400.539,6.170425
8427.538,6.27603
8454.537,6.718462
8481.536,7.124678
8508.535,7.464425
8535.534,7.605578
8562.533,7.376983
8589.532,7.846198
8616.531,8.530969
8643.53,9.07429
8670.529,9.408149
8697.528,9.703631
8724.527,10.07317
8751.525,10.42153
8778.524,10.67909
8805.523,10.85081
8832.522,10.97712
8859.521,11.00765
8886.521,11.03903
8913.52,11.03888
8940.519,11.0226
8967.518,11.03278
8994.517,11.0447
9021.516,11.06959
9048.515,11.0885
9075.514,11.10908
9102.513,11.09847
9129.512,11.10098
9156.511,11.07142
9183.51,11.04253
9210.509,11.02009
9237.508,10.99746
9264.507,10.94259
9291.506,10.93283
9318.504,10.93818
9345.503,10.9142
9372.502,10.86332
9399.501,10.83009
9426.5,10.77323
9453.499,10.69998
9480.498,10.62652
9507.497,10.59283
9534.496,10.51265
9561.495,10.45945
9588.494,10.41905
9615.493,10.45455
9642.492,10.52527
9669.491,10.63722
9696.49,10.741
9723.489,10.84406
9750.488,10.94187
9777.487,10.9938
9804.486,10.99808
9831.485,11.03005
9858.484,11.14866
9885.482,11.21552
9912.481,11.36637
9939.48,11.42423
9966.479,11.55036
9993.479,11.58932
10020.48,11.6163
10047.48,11.68194
10074.48,11.69106
10101.47,11.7631
10128.47,11.7985
10155.47,11.82564
10182.47,11.83215
10209.47,11.82872
10236.47,11.80854
10263.47,11.86155
10290.47,11.84271
10317.47,11.79734
10344.47,11.77807
10371.46,11.74772
10398.46,11.74478
10425.46,11.72864
10452.46,11.66938
10479.46,11.62349
10506.46,11.52301
10533.46,11.37737
10560.46,11.24665
10587.46,11.02617
10614.46,10.73538
10641.45,10.37456
10668.45,10.06563
10695.45,9.766195
10722.45,9.723072
10749.45,9.74719
10776.45,9.884117
10803.45,10.13582
10830.45,10.35651
10857.45,10.63366
10884.45,10.84366
10911.44,11.0742
10938.44,11.28974
10965.44,11.46218
10992.44,11.67185
11019.44,11.74848
11046.44,11.85745
11073.44,11.95031
11100.44,12.01328
11127.44,11.95773
11154.43,12.1381
11181.43,12.11343
11208.43,12.25517
11235.43,12.30034
11262.43,12.44534
11289.43,12.42029
11316.43,12.51024
11343.43,12.58175
11370.43,12.66349
11397.43,12.59501
11424.42,12.77928
11451.42,12.77833
11478.42,12.74639
11505.42,12.74083
11532.42,12.89832
11559.42,12.88066
11586.42,12.84518
11613.42,12.90777
11640.42,12.91615
11667.42,12.99235
11694.41,12.96403
11721.41,12.93461
11748.41,13.03117
11775.41,13.00987
11802.41,12.90483
11829.41,12.86456
11856.41,12.7729
11883.41,12.83168
11910.41,12.82765
11937.41,12.74607
11964.4,12.67996
11991.4,12.59134
11999.12,12.6371

File: S0040HDPE_1.csv
Wavenumber,Intensity
3999.706,3.998509
4026.705,3.993119
4053.704,4.00614
4080.703,4.01436
4107.702,4.018348
4134.701,4.026439
4161.7,4.038956
4188.699,4.056244
4215.698,4.106903
4242.697,4.135275
4269.696,4.165298
4296.694,4.193064
4323.693,4.161252
4350.692,4.19062
4377.691,4.24316
4404.69,4.41235
4431.689,4.640873
4458.688,4.864673
4485.688,5.079764
4512.687,5.365177
4539.686,5.636671
4566.685,5.953478
4593.683,6.139713
4620.682,6.246193
4647.681,6.312203
4674.68,6.236485
4701.679,6.408144
4728.678,6.289024
4755.677,6.231767
4782.676,6.053675
4809.675,5.958861
4836.674,5.795153
4863.673,5.593352
4890.672,5.647054
4917.671,5.701059
4944.67,5.673527
4971.669,5.498584
4998.668,5.691801
5025.667,5.801552
5052.666,5.824569
5079.665,5.787201
5106.664,5.769347
5133.663,5.833318
5160.662,5.76062
5187.661,5.759727
5214.66,5.779664
5241.659,5.821885
5268.658,5.864239
5295.657,5.848896
5322.656,5.932357
5349.655,5.793812
5376.654,5.611625
5403.652,5.483515
5430.651,5.290617
5457.65,5.240273
5484.649,5.137889
5511.648,5.165292
5538.647,5.171482
5565.646,5.193399
5592.646,5.362249
5619.645,5.178008
5646.644,4.920298
5673.643,4.68682
5700.642,5.035803
5727.641,4.901811
5754.639,4.601658
5781.638,4.460044
5808.637,4.633897
5835.636,4.911327
5862.635,5.776571
5889.634,7.104956
5916.633,7.848811
5943.632,8.456608
5970.631,9.288248
5997.63,10.17056
6024.629,10.85813
6051.628,11.34567
6078.627,11.64699
6105.626,11.53983
6132.625,11.95435
6159.624,12.2398
6186.623,12.43638
6213.622,12.54882
6240.621,12.64042
6267.62,12.68165
6294.619,12.71531
6321.618,12.7244
6348.617,12.61653
6375.616,12.37624
6402.615,12.24029
6429.614,11.96743
6456.613,11.55832
6483.612,10.39131
6510.61,10.99797
6537.609,11.28257
6564.608,11.47314
6591.607,11.6301
6618.606,11.64405
6645.605,11.57268
6672.604,11.42397
6699.604,11.21071
6726.603,10.90652
6753.602,10.65532
6780.601,10.31444
6807.6,9.740875
6834.599,9.153242
6861.598,8.912085
6888.597,8.592594
6915.596,8.317134
6942.594,7.818895
6969.593,7.719261
6996.592,7.633413
7023.591,7.377357
7050.59,7.352024
7077.589,7.552098
7104.588,8.069101
7131.587,8.503649
7158.586,7.589024
7185.585,7.275824
7212.584,8.887817
7239.583,10.17236
7266.582,11.37169
7293.581,12.4397
7320.58,13.37447
7347.579,13.98061
7374.578,14.26784
7401.577,14.43192
7428.576,14.54039
7455.575,14.62363
7482.574,14.66722
7509.573,14.64353
7536.572,14.62225
7563.571,14.55296
7590.57,14.46999
7617.569,14.35137
7644.568,14.17561
7671.566,14.04063
7698.565,13.97577
7725.564,13.879
7752.563,13.78412
7779.563,13.68332
7806.562,13.60027
7833.561,13.48237
7860.56,13.30229
7887.559,13.07452
7914.558,12.79275
7941.557,12.46712
7968.556,12.08117
7995.555,11.63639
8022.554,11.10651
8049.553,10.51693
8076.552,9.833402
8103.551,9.120711
8130.55,8.295304
8157.548,7.452703
8184.547,6.625979
8211.546,6.187054
8238.545,6.208626
8265.544,6.378292
8292.543,6.863125
8319.542,7.471596
8346.541,8.150409
8373.54,8.991861
8400.539,9.54298
8427.538,9.490677
8454.537,10.22337
8481.536,10.91927
8508.535,11.47418
8535.534,11.6819
8562.533,10.933
8589.532,11.91932
8616.531,13.31092
8643.53,14.24026
8670.529,14.84301
8697.528,15.36442
8724.527,15.89814
8751.525,16.44141
8778.524,16.83066
8805.523,17.08936
8832.522,17.18794
8859.521,17.27233
8886.521,17.31614
8913.52,17.28909
8940.519,17.26937
8967.518,17.29235
8994.517,17.33999
9021.516,17.40641
9048.515,17.46966
9075.514,17.49751
9102.513,17.55454
9129.512,17.525
9156.511,17.53107
9183.51,17.4694
9210.509,17.44585
9237.508,17.40179
9264.507,17.38174
9291.506,17.36208
9318.504,17.37038
9345.503,17.38417
9372.502,17.31436
9399.501,17.21447
9426.5,17.13004
9453.499,17.00699
9480.498,16.91228
9507.497,16.82237
9534.496,16.77133
9561.495,16.66046
9588.494,16.56971
9615.493,16.6375
9642.492,16.78953
9669.491,17.02922
9696.49,17.24012
9723.489,17.47017
9750.488,17.65429
9777.487,17.76426
9804.486,17.7591
9831.485,17.78392
9858.484,17.98814
9885.482,18.2174
9912.481,18.37552
9939.48,18.55563
9966.479,18.6878
9993.479,18.80203
10020.48,18.85627
10047.48,18.9806
10074.48,19.1026
10101.47,19.14259
10128.47,19.19845
10155.47,19.19872
10182.47,19.26402
10209.47,19.26386
10236.47,19.24285
10263.47,19.24156
10290.47,19.24072
10317.47,19.21313
10344.47,19.15654
10371.46,19.19367
10398.46,19.13404
10425.46,19.15155
10452.46,19.03246
10479.46,18.9508
10506.46,18.80072
10533.46,18.61543
10560.46,18.22368
10587.46,17.82429
10614.46,17.28703
10641.45,16.68926
10668.45,16.01524
10695.45,15.51451
10722.45,15.36909
10749.45,15.50517
10776.45,15.80521
10803.45,16.21612
10830.45,16.74012
10857.45,17.2278
10884.45,17.79801
10911.44,18.21927
10938.44,18.69307
10965.44,19.01
10992.44,19.30665
11019.44,19.51269
11046.44,19.63304
11073.44,19.79918
11100.44,19.82372
11127.44,19.83531
11154.43,19.99145
11181.43,20.08059
11208.43,20.32303
11235.43,20.48169
11262.43,20.58086
11289.43,20.67676
11316.43,20.68796
11343.43,20.85855
11370.43,20.83832
11397.43,20.90162
11424.42,21.02526
11451.42,21.14624
11478.42,21.16567
11505.42,21.23731
11532.42,21.34827
11559.42,21.37085
11586.42,21.59332
11613.42,21.39566
11640.42,21.54012
11667.42,21.46743
11694.41,21.51458
11721.41,21.46569
11748.41,21.59199
11775.41,21.53176
11802.41,21.52823
11829.41,21.49624
11856.41,21.51649
11883.41,21.67052
11910.41,21.73868
11937.41,21.86689
11964.4,22.04616
11991.4,21.87981
11999.12,22.04872

File: S0040HDPE_2.csv
Wavenumber,Intensity
3999.706,3.733309
4026.705,3.718194
4053.704,3.733454
4080.703,3.737801
4107.702,3.741562
4134.701,3.746686
4161.7,3.760041
4188.699,3.775413
4215.698,3.822235
4242.697,3.848624
4269.696,3.870857
4296.694,3.900086
4323.693,3.865691
4350.692,3.895107
4377.691,3.950206
4404.69,4.187719
4431.689,4.530527
4458.688,4.858728
4485.688,5.147454
4512.687,5.506765
4539.686,5.829378
4566.685,6.184258
4593.683,6.384868
4620.682,6.502029
4647.681,6.572114
4674.68,6.486563
4701.679,6.665496
4728.678,6.531893
4755.677,6.46625
4782.676,6.257472
4809.675,6.150564
4836.674,5.951421
4863.673,5.707224
4890.672,5.77172
4917.671,5.830451
4944.67,5.798066
4971.669,5.575311
4998.668,5.81325
5025.667,5.945681
5052.666,5.966081
5079.665,5.914952
5106.664,5.889071
5133.663,5.965082
5160.662,5.874768
5187.661,5.873065
5214.66,5.889891
5241.659,5.949158
5268.658,5.991097
5295.657,5.964391
5322.656,6.059187
5349.655,5.901214
5376.654,5.677235
5403.652,5.506506
5430.651,5.238612
5457.65,5.183295
5484.649,5.036816
5511.648,5.07062
5538.647,5.076876
5565.646,5.103896
5592.646,5.323583
5619.645,5.076918
5646.644,4.727467
5673.643,4.399416
5700.642,4.8754
5727.641,4.686125
5754.639,4.279997
5781.638,4.114791
5808.637,4.316038
5835.636,4.70056
5862.635,5.817004
5889.634,7.329812
5916.633,8.114473
5943.632,8.735139
5970.631,9.573598
5997.63,10.44025
6024.629,11.11285
6051.628,11.59759
6078.627,11.89193
6105.626,11.78865
6132.625,12.19117
6159.624,12.46475
6186.623,12.65529
6213.622,12.77116
6240.621,12.86155
6267.62,12.90003
6294.619,12.93908
6321.618,12.95027
6348.617,12.84346
6375.616,12.6144
6402.615,12.47556
6429.614,12.21536
6456.613,11.81646
6483.612,10.66994
6510.61,11.26287
6537.609,11.54973
6564.608,11.73319
6591.607,11.89345
6618.606,11.90422
6645.605,11.83656
6672.604,11.69612
6699.604,11.47682
6726.603,11.18063
6753.602,10.93068
6780.601,10.59351
6807.6,10.02192
6834.599,9.435032
6861.598,9.174974
6888.597,8.847315
6915.596,8.565465
6942.594,8.026702
6969.593,7.931625
6996.592,7.827278
7023.591,7.560312
7050.59,7.520513
7077.589,7.743656
7104.588,8.30454
7131.587,8.753502
7158.586,7.797288
7185.585,7.436632
7212.584,9.14975
7239.583,10.4778
7266.582,11.65982
7293.581,12.72402
7320.58,13.66253
7347.579,14.25038
7374.578,14.54486
7401.577,14.7008
7428.576,14.80745
7455.575,14.89328
7482.574,14.93743
7509.573,14.90965
7536.572,14.88867
7563.571,14.82204
7590.57,14.7369
7617.569,14.62998
7644.568,14.46143
7671.566,14.32566
7698.565,14.26206
7725.564,14.15633
7752.563,14.0621
7779.563,13.96138
7806.562,13.8893
7833.561,13.76432
7860.56,13.60024
7887.559,13.36565
7914.558,13.09284
7941.557,12.77748
7968.556,12.37805
7995.555,11.93017
8022.554,11.39907
8049.553,10.79155
8076.552,10.10946
8103.551,9.371429
8130.55,8.486518
8157.548,7.56689
8184.547,6.651196
8211.546,6.133217
8238.545,6.157542
8265.544,6.350036
8292.543,6.904231
8319.542,7.59504
8346.541,8.301962
8373.54,9.230927
8400.539,9.795089
8427.538,9.735266
8454.537,10.50949
8481.536,11.22856
8508.535,11.78368
8535.534,11.98527
8562.533,11.23674
8589.532,12.21779
8616.531,13.6348
8643.53,14.58113
8670.529,15.1862
8697.528,15.7127
8724.527,16.23135
8751.525,16.79551
8778.524,17.19776
8805.523,17.43447
8832.522,17.55975
8859.521,17.63004
8886.521,17.67108
8913.52,17.66721
8940.519,17.61674
8967.518,17.64943
8994.517,17.69859
9021.516,17.78817
9048.515,17.86225
9075.514,17.87116
9102.513,17.92802
9129.512,17.90839
9156.511,17.91775
9183.51,17.85157
9210.509,17.83097
9237.508,17.78561
9264.507,17.76759
9291.506,17.74724
9318.504,17.7516
9345.503,17.7768
9372.502,17.69485
9399.501,17.62195
9426.5,17.5286
9453.499,17.38759
9480.498,17.28393
9507.497,17.23797
9534.496,17.15936
9561.495,17.06282
9588.494,16.97
9615.493,17.03973
9642.492,17.21824
9669.491,17.43112
9696.49,17.66566
9723.489,17.86859
9750.488,18.08813
9777.487,18.17841
9804.486,18.20218
9831.485,18.21499
9858.484,18.40771
9885.482,18.66845
9912.481,18.81442
9939.48,19.00356
9966.479,19.14076
9993.479,19.24287
10020.48,19.3227
10047.48,19.42455
10074.48,19.54414
10101.47,19.58315
10128.47,19.65775
10155.47,19.66281
10182.47,19.72161
10209.47,19.74833
10236.47,19.70601
10263.47,19.71389
10290.47,19.71165
10317.47,19.66786
10344.47,19.66183
10371.46,19.66734
10398.46,19.59145
10425.46,19.65096
10452.46,19.5317
10479.46,19.4268
10506.46,19.28387
10533.46,19.05713
10560.46,18.71342
10587.46,18.3232
10614.46,17.74279
10641.45,17.1518
10668.45,16.46405
10695.45,15.97719
10722.45,15.78904
10749.45,15.92564
10776.45,16.25423
10803.45,16.69573
10830.45,17.22137
10857.45,17.70997
10884.45,18.26859
10911.44,18.66141
10938.44,19.13806
10965.44,19.52986
10992.44,19.82697
11019.44,19.9959
11046.44,20.17255
11073.44,20.31894
11100.44,20.3183
11127.44,20.4067
11154.43,20.53236
11181.43,20.61766
11208.43,20.88931
11235.43,20.99376
11262.43,21.20951
11289.43,21.24058
11316.43,21.28575
11343.43,21.32756
11370.43,21.43781
11397.43,21.56772
11424.42,21.54597
11451.42,21.71221
11478.42,21.79966
11505.42,21.75587
11532.42,21.90537
11559.42,21.98841
11586.42,21.98235
11613.42,22.0224
11640.42,22.15539
11667.42,22.06536
11694.41,22.21069
11721.41,22.16586
11748.41,22.12325
11775.41,22.14936
11802.41,22.05491
11829.41,22.03934
11856.41,22.19754
11883.41,22.38298
11910.41,22.38196
11937.41,22.53135
11964.4,22.52751
11991.4,22.6489
11999.12,22.57117